File: KFI-RHO-LTA-UFI_paper/dependence_plot_data/KFI_KSi.csv
K/Si,SHAP value
0.0,-0.00310245
0.0,-0.000696129
0.0,-0.000911677
0.0,-0.0011307
0.0,-0.00122832
0.0,-0.000685493
0.0,-0.000493627
0.0,-0.000844605
0.0,-0.000753141
0.0,-0.000733827
0.0,-0.000631585
0.0,-0.0010654
0.0,-0.000428632
0.0,-0.000796547
0.0,-0.0012359
0.0,-0.000442378
0.0,-0.00106154
0.0,-0.00074304
0.0,-0.000741141
0.0,-0.00129874
0.0,-0.000708722
0.0,-0.000674591
0.0,-0.0011752
0.0,-0.000686207
0.0,-0.000592844
0.0,-0.000730009
0.0,-0.000432857
0.0,-0.00119598
0.0,-0.000716603
0.0,-0.000880498
0.0,-0.000668139
0.0,-0.000772033
0.0,-0.0011346
0.0,-0.000657853
0.0,-0.000720841
0.0,-0.000835676
0.0,-0.000621371
0.0,-0.00073887
0.0,-0.000789591
0.0,-0.000633803
0.0,-0.000863816
0.0,-0.00204329
0.0,-0.000833168
0.0,-0.000680714
0.0,-0.000460597
0.0,-0.000686837
0.0,-0.000497849
0.0,-0.000614955
0.0,-0.000710311
0.0,-0.00106029
0.0,-0.000459073
0.0,-0.000955312
0.0,-0.00433962
0.0,-0.00114098
0.0,-0.000869142
0.0,-0.00125139
0.0,-0.000546922
0.0,-0.000559721
0.0,-0.00185896
0.0,-0.000695795
0.0,-0.000940243
0.0,-0.00105557
0.0,-0.000725045
0.0,-0.000682856
0.0,-0.000736101
0.0,-0.000987708
0.0,-0.000572549
0.0,-0.00115204
0.0,-0.00070981
0.0,-0.000873602
0.0,-0.000620618
0.0,-0.000725807
0.0,-0.000893792
0.0,-0.000765598
0.0,-0.000771289
0.0,-0.00122845
0.0,-0.000961327
0.0,-0.000490668
0.0,-0.000501456
0.0,-0.00109944
0.0,-0.000477892
0.0,-0.000664909
0.0,-0.00186723
0.0,-0.00043371
0.0,-0.000716603
0.0,-0.00121873
0.0,-0.00062044
0.0,-0.000878184
0.0,-0.000669123
0.0,-0.000875124
0.0,-0.00118008
0.0,-0.00111341
0.0,-0.0033458
0.0,-0.000656309
0.0,-0.000669217
0.0,-0.000656151
0.0,-0.00175612
0.0,-0.000634427
0.0,-0.00334462
0.0,-0.00118054
0.0,-0.000961024
0.0,-0.00122568
0.0,-0.00100954
0.0,-0.000922423
0.0,-0.000711935
0.0,-0.000890204
0.0,-0.000578676
0.0,-0.000716603
0.0,-0.00044635
0.0,-0.000763743
0.0,-0.000954225
0.0,-0.000628187
0.0,-0.000763221
0.0,-0.000668292
0.0,-0.000631709
0.0,-0.000802172
0.0,-0.00292506
0.0,-0.000507005
0.0,-0.000702811
0.0,-0.000625653
0.0,-0.000625956
0.0,-0.000816792
0.0,-0.000719175
0.0,-0.00629059
0.0,-0.00059719
0.0,-0.000774782
0.0,-0.000752316
0.0,-0.00122817
0.0,-0.00085827
0.0,-0.000839303
0.0,-0.000651859
0.0,-0.00107132
0.0,-0.00207803
0.0,-0.000711894
0.0,-0.00146597
0.0,-0.000682665
0.0,-0.00131543
0.0,-0.000512511
0.0,-0.000747504
0.0,-0.000863859
0.0,-0.000882954
0.0,-0.000764216
0.0,-0.00413126
0.0,-0.000796183
0.0,-0.000689288
0.0,-0.000582004
0.0,-0.00082015
0.0,-0.000874417
0.0,-0.000750132
0.0,-0.000874645
0.0,-0.000554503
0.0,-0.00108972
0.0,-0.000570058
0.0,-0.00122216
0.0,-0.0010688
0.0,-0.000550495
0.0,-0.000599823
0.0,-0.000750495
0.0,-0.000912206
0.0,-0.0008297
0.0,-0.000783731
0.0,-0.000465284
0.0,-0.000840544
0.0,-0.000775522
0.0,-0.00140429
0.0,-0.000572272
0.0,-0.000949023
0.0,-0.00104744
0.0,-0.000639411
0.0,-0.000683659
0.0,-0.00104798
0.0,-0.000570207
0.0,-0.00120715
0.0,-0.00652304
0.0,-0.000588272
0.0,-0.000778985
0.0,-0.000873911
0.0,-0.000744791
0.0,-0.000796969
0.0,-0.000730052
0.0,-0.000720409
0.0,-0.000785859
0.0,-0.000786315
0.0,-0.000737152
0.0,-0.00472901
0.0,-0.000966404
0.0,-0.000580903
0.0,-0.000837362
0.0,-0.000694637
0.0,-0.00125243
0.0,-0.000725415
0.0,-0.000996317
0.0,-0.000778971
0.0,-0.000586588
0.0,-0.000636392
0.0,-0.000681204
0.0,-0.000562065
0.0,-0.000726063
0.0,-0.00101216
0.0,-0.000407575
0.0,-0.00075418
0.0,-0.000615085
0.0,-0.000601818
0.0,-0.000565454
0.0,-0.00151666
0.0,-0.000431799
0.0,-0.00066674
0.0,-0.00147164
0.0,-0.000748248
0.0,-0.000702043
0.0,-0.000460185
0.0,-0.00122166
0.0,-0.00117622
0.0,-0.00134716
0.0,-0.00072861
0.0,-0.000681403
0.0,-0.00108797
0.0,-0.000481903
0.0,-0.00153003
0.0,-0.000834596
0.0,-0.000555672
0.0,-0.000697109
0.0,-0.000480044
0.0,-0.000886445
0.0,-0.00135685
0.0,-0.000694637
0.0,-0.000789912
0.0,-0.000448535
0.0,-0.00112221
0.0,-0.000685158
0.0,-0.000606645
0.0,-0.00110618
0.0,-0.000798875
0.0,-0.000909897
0.0,-0.00102298
0.0,-0.000700765
0.0,-0.00101016
0.0,-0.000715737
0.0,-0.000873911
0.0,-0.000717519
0.0,-0.00112585
0.0,-0.00106043
0.0,-0.000760362
0.0,-0.00110185
0.0,-0.000864011
0.0,-0.000735643
0.0,-0.000567109
0.0,-0.00128127
0.0,-0.00106646
0.0,-0.000722621
0.0,-0.000638922
0.0,-0.00071315
0.0,-0.000504275
0.0,-0.000688577
0.0,-0.000820974
0.0,-0.000457751
0.0,-0.000584884
0.0,-0.000473966
0.0,-0.00181765
0.0,-0.00129457
0.0,-0.00112615
0.0,-0.00643744
0.0,-0.00106963
0.0,-0.000397262
0.0,-0.00103682
0.0,-0.000600557
0.0,-0.000649816
0.0,-0.00146954
0.0,-0.000681961
0.0,-0.000801551
0.0,-0.000728914
0.0,-0.00120449
0.0,-0.00112241
0.0,-0.0026516
0.0,-0.000557624
0.0,-0.00111847
0.0,-0.000624799
0.0,-0.000758561
0.0,-0.000734534
0.0,-0.00114162
0.0,-0.00108619
0.0,-0.000619808
0.0,-0.000552151
0.0,-0.000550568
0.0,-0.0005601
0.0,-0.000819822
0.0,-0.000572518
0.0,-0.000681361
0.0,-0.00064306
0.0,-0.00332248
0.0,-0.00156203
0.0,-0.00410021
0.0,-0.00113471
0.0,-0.000836497
0.0,-0.00164257
0.0,-0.000711267
0.0,-0.00070389
0.0,-0.00110425
0.0,-0.000720293
0.0,-0.000614815
0.0,-0.000624185
0.0,-0.000672925
0.0,-0.00147183
0.0,-0.00569309
0.0,-0.000643309
0.0,-0.000676139
0.0,-0.000905927
0.0,-0.000830322
0.0,-0.00169773
0.0,-0.000502747
0.0,-0.00107915
0.0,-0.000866553
0.0,-0.00128196
0.0,-0.00106549
0.0,-0.000708535
0.0,-0.00159462
0.0,-0.00106843
0.0,-0.00142421
0.0,-0.000698252
0.0,-0.000595598
0.0,-0.000627937
0.0,-0.000908611
0.0,-0.000655621
0.0,-0.000644548
0.0,-0.00086725
0.0,-0.00141176
0.0,-0.000714103
0.0,-0.000801536
0.0,-0.000411711
0.0,-0.00182466
0.0,-0.000838536
0.0,-0.000828355
0.0,-0.00133846
0.0,-0.000655248
0.0,-0.0014222
0.0,-0.000795186
0.0,-0.000415586
0.0,-0.00420888
0.0,-0.000565482
0.0,-0.000835348
0.0,-0.00736555
0.0,-0.00628963
0.0,-0.00543065
0.0,-0.000853424
0.0,-0.00110313
0.0,-0.000784233
0.0,-0.000620818
0.0,-0.000585734
0.0,-0.000708427
0.0,-0.000902773
0.0,-0.00165612
0.0,-0.000705327
0.0,-0.000474027
0.0,-0.000873911
0.0,-0.000658705
0.0,-0.00122004
0.0,-0.000674556
0.0,-0.000544014
0.0,-0.000636285
0.0,-0.00127417
0.0,-0.000716794
0.0,-0.00074183
0.0,-0.000749316
0.0,-0.00119785
0.0,-0.000665494
0.0,-0.00133197
0.0,-0.000650979
0.0,-0.000797484
0.0,-0.000612723
0.0,-0.000827907
0.0,-0.000904782
0.0,-0.000879404
0.0,-0.000839362
0.0,-0.000909661
0.0,-0.000873602
0.0,-0.000632163
0.0,-0.00165528
0.0,-0.000801383
0.0,-0.000635347
0.0,-0.0025385
0.0,-0.000653916
0.0,-0.000799656
0.0,-0.00059702
0.0,-0.00122294
0.0,-0.000736496
0.0,-0.000827907
0.0,-0.00118615
0.0,-0.000674592
0.0,-0.000706881
0.0,-0.000677825
0.0,-0.000901604
0.0,-0.000634856
0.0,-0.000700908
0.0,-0.000801905
0.0,-0.000574598
0.0,-0.00093349
0.0,-0.000803037
0.0,-0.0006456
0.0,-0.0012931
0.0,-0.000554151
0.0,-0.00073036
0.0,-0.00267955
0.0,-0.000851058
0.0,-0.000743466
0.0,-0.000703848
0.0,-0.00106815
0.0,-0.00076823
0.0,-0.000694637
0.0,-0.00163176
0.0,-0.00104562
0.0,-0.000764735
0.0,-0.000685312
0.0,-0.00066662
0.0,-0.00104658
0.0,-0.000802172
0.0,-0.000518664
0.0,-0.00119146
0.0,-0.000880498
0.0,-0.000753374
0.0,-0.00128109
0.0,-0.000604432
0.0,-0.00111061
0.0,-0.000599182
0.0,-0.00166751
0.0,-0.00100289
0.0,-0.00042548
0.0,-0.000456015
0.0,-0.000468759
0.0,-0.000624619
0.0,-0.000729868
0.0,-0.000695991
0.0,-0.000889406
0.0,-0.00153829
0.0,-0.000803037
0.0,-0.000943479
0.0,-0.000670072
0.0,-0.00039659
0.0,-0.000714357
0.0,-0.000881898
0.0,-0.00076165
0.0,-0.000702699
0.0,-0.00326211
0.0,-0.00108894
0.0,-0.000668104
0.0,-0.000741905
0.0,-0.0010864
0.0,-0.00081981
0.0,-0.00225632
0.0,-0.000588242
0.0,-0.00106688
0.0,-0.000574051
0.0,-0.00452286
0.0,-0.000704225
0.0,-0.00113465
0.0,-0.00132504
0.0,-0.000460367
0.0,-0.000706655
0.0,-0.00179495
0.0,-0.000853022
0.0,-0.000781563
0.0,-0.000756486
0.0,-0.00044101
0.0,-0.00207406
0.0,-0.00047335
0.0,-0.000707285
0.0,-0.00064623
0.0,-0.000703168
0.0,-0.000764135
0.0,-0.000665078
0.0,-0.000513064
0.0,-0.00111778
0.0,-0.00077199
0.0,-0.000873903
0.0,-0.00122761
0.0,-0.000749316
0.0,-0.000588619
0.0,-0.000770885
0.0,-0.00058948
0.0,-0.00115757
0.0,-0.00126868
0.0,-0.000709126
0.0,-0.000589098
0.0,-0.00116901
0.0,-0.000446201
0.0,-0.000716603
0.0,-0.000837307
0.0,-0.00117778
0.0,-0.000739467
0.0,-0.000721889
0.0,-0.000474234
0.0,-0.000805749
0.0,-0.000625372
0.0,-0.000706185
0.0,-0.00322529
0.0,-0.00284348
0.0,-0.000853417
0.0,-0.00071693
0.0,-0.000948267
0.0,-0.000711438
0.0,-0.00239206
0.0,-0.00356727
0.0,-0.000649221
0.0,-0.000725255
0.0,-0.000737157
0.0,-0.00080746
0.0,-0.00123179
0.0,-0.00080789
0.0,-0.000881323
0.0,-0.00084402
0.0,-0.000632926
0.0,-0.000514682
0.0,-0.000722492
0.0,-0.00182466
0.0,-0.00116898
0.0,-0.000810455
0.0,-0.000848564
0.0,-0.000695565
0.0,-0.000666698
0.0,-0.000780086
0.0,-0.000646733
0.0,-0.000718614
0.0,-0.000976541
0.0,-0.00047832
0.0,-0.000822748
0.0,-0.000640515
0.0,-0.000700081
0.0,-0.000623524
0.0,-0.000627522
0.0,-0.000612702
0.0,-0.000607918
0.0,-0.000667434
0.0,-0.000512456
0.0,-0.00110696
0.0,-0.000506243
0.0,-0.000827907
0.0,-0.000547768
0.0,-0.000705204
0.0,-0.000792869
0.0,-0.000571189
0.0,-0.000697165
0.0,-0.000692558
0.0,-0.00110852
0.0,-0.00205713
0.0,-0.000820374
0.0,-0.00097355
0.0,-0.000506874
0.0,-0.000681063
0.0,-0.000597715
0.0,-0.000609348
0.0,-0.000702646
0.0,-0.000721195
0.0,-0.000621475
0.0,-0.000607608
0.0,-0.00112652
0.0,-0.000463428
0.0,-0.000587769
0.0,-0.00047449
0.0,-0.000830199
0.0,-0.00076594
0.0,-0.00772983
0.0,-0.000567114
0.0,-0.00137437
0.0,-0.000692311
0.0,-0.000595521
0.0,-0.000543642
0.0,-0.00331422
0.0,-0.00122088
0.0,-0.00265293
0.0,-0.00111766
0.0,-0.00046898
0.0,-0.000631715
0.0,-0.00177418
0.0,-0.00102648
0.0,-0.000665939
0.0,-0.000486225
0.0,-0.000754453
0.0,-0.00116596
0.0,-0.000707116
0.0,-0.000716694
0.0,-0.000466116
0.0,-0.000444741
0.0,-0.000569477
0.0,-0.000981099
0.0,-0.000432577
0.0,-0.000517184
0.0,-0.000575889
0.0,-0.000848564
0.0,-0.00119867
0.0,-0.000788166
0.0,-0.000860715
0.0,-0.001304
0.0,-0.00089765
0.0,-0.000470571
0.0,-0.000439263
0.0,-0.000703848
0.0,-0.000643565
0.0,-0.000531041
0.0,-0.00128661
0.0,-0.000908924
0.0,-0.000602177
0.0,-0.0011143
0.0,-0.000709323
0.0,-0.00075249
0.0,-0.000428632
0.0,-0.000747802
0.0,-0.00121873
0.0,-0.00090922
0.0,-0.000701508
0.0,-0.00112133
0.0,-0.000773444
0.0,-0.00119598
0.0,-0.000959457
0.0,-0.00108395
0.0,-0.00110929
0.0,-0.000693017
0.0,-0.00110989
0.0,-0.000657291
0.0,-0.00163096
0.0,-0.000524791
0.0,-0.00119497
0.0,-0.000474051
0.0,-0.000830199
0.0,-0.000523005
0.0,-0.00198935
0.0,-0.00353078
0.0,-0.00102505
0.0,-0.000435233
0.0,-0.000714755
0.0,-0.000682434
0.0,-0.000738639
0.0,-0.000703443
0.0,-0.000473011
0.0,-0.00072527
0.0,-0.00101721
0.0,-0.000878184
0.0,-0.00133172
0.0,-0.00207936
0.0,-0.00131163
0.0,-0.00083018
0.0,-0.000813925
0.0,-0.000818247
0.0,-0.000393468
0.0,-0.000719869
0.0,-0.00156015
0.0,-0.000707116
0.0,-0.000524084
0.0,-0.00072911
0.0,-0.000674295
0.0,-0.000604138
0.0,-0.00551175
0.0,-0.000691014
0.0,-0.000791178
0.0,-0.000467509
0.0,-0.001331
0.0,-0.000786709
0.0,-0.000843003
0.0,-0.000776429
0.0,-0.00278651
0.0,-0.000829659
0.0,-0.000886389
0.0,-0.000502062
0.0,-0.00123417
0.0,-0.000636229
0.0,-0.000560348
0.0,-0.000589156
0.0,-0.00109698
0.0,-0.000436752
0.0,-0.000838274
0.0,-0.000671843
0.0,-0.0008226
0.0,-0.00106911
0.0,-0.0069627
0.0,-0.000594151
0.0,-0.000437892
0.0,-0.000557695
0.0,-0.00080746
0.0,-0.000833114
0.0,-0.000461824
0.0,-0.00473215
0.0,-0.00110473
0.0,-0.000659168
0.0,-0.000816315
0.0,-0.000716603
0.0,-0.000549624
0.0,-0.00064049
0.0,-0.000866414
0.0,-0.00159462
0.0,-0.000571915
0.0,-0.000714748
0.0,-0.000998379
0.0,-0.000760615
0.0,-0.000555313
0.0,-0.00152652
0.0,-0.00112556
0.0,-0.00046345
0.0,-0.000670352
0.0,-0.00075407
0.0,-0.000655356
0.0,-0.000788078
0.0,-0.000786735
0.0,-0.00114173
0.0,-0.000628207
0.0,-0.000835206
0.0,-0.00110146
0.0,-0.000669618
0.0,-0.00130897
0.0,-0.000632245
0.0,-0.000676093
0.0,-0.000744013
0.0,-0.000393953
0.0,-0.000719764
0.0,-0.00073241
0.0,-0.000439207
0.0,-0.000506244
0.0,-0.000560057
0.0,-0.000695565
0.0,-0.000632833
0.0,-0.000745631
0.0,-0.000741977
0.0,-0.000897131
0.0,-0.00113075
0.0,-0.000498183
0.0,-0.000457567
0.0,-0.000751434
0.0,-0.00128718
0.0,-0.00059792
0.0,-0.000959601
0.0,-0.000768583
0.0,-0.000754675
0.0,-0.000445013
0.0,-0.000727532
0.0,-0.000657078
0.0,-0.000629588
0.0,-0.000913216
0.0,-0.000580951
0.0,-0.000477762
0.0,-0.000659164
0.0,-0.000717664
0.0,-0.00104144
0.0,-0.00105506
0.0,-0.000461824
0.0,-0.00053831
0.0,-0.000792869
0.0,-0.000590747
0.0,-0.000730861
0.0,-0.000729217
0.0,-0.000617566
0.0,-0.000749205
0.0,-0.000542401
0.0,-0.000518737
0.0,-0.00106085
0.0,-0.00105276
0.0,-0.000470313
0.0,-0.000510676
0.0,-0.000703214
0.0,-0.00097292
0.0,-0.000626559
0.0,-0.00818014
0.0,-0.00080682
0.0,-0.00105654
0.0,-0.00089141
0.0,-0.00088295
0.0,-0.000482368
0.0,-0.00113148
0.0,-0.000998379
0.0,-0.000526297
0.0,-0.000780916
0.0,-0.000780656
0.0,-0.000958438
0.0,-0.000664881
0.0,-0.000406829
0.00222222,-0.000594415
0.00225,-0.000977458
0.00225641,-0.0009444
0.0045,-0.000917681
0.009,-0.000921418
0.0315,-0.000361989
0.04,-0.000382298
0.042,-0.000448912
0.0420875,-0.000781956
0.0465574,-0.00269198
0.05,-0.000596743
0.05,-0.000669954
0.05,-0.000507637
0.055,-1.32444e-05
0.06,-0.00497079
0.0625,-9.54764e-05
0.06875,5.55711e-06
0.084,-5.38112e-05
0.09,-5.96535e-05
0.1,-0.000830089
0.1,-0.000785817
0.1,-0.000384759
0.1,-0.000881602
0.1,-0.000374612
0.1,-0.000312334
0.1,0.000355892
0.116667,0.000380885
0.119697,-6.61661e-06
0.122222,-4.42829e-05
0.125,-0.000641378
0.13,-0.000404267
0.136129,3.11749e-05
0.15,-3.75273e-05
0.15,-0.000231363
0.15,-0.000191293
0.15,-0.000231363
0.15,-3.26964e-05
0.152532,0.000318279
0.154,0.000370479
0.154,0.00033388
0.154,0.000741661
0.154991,0.000629156
0.16,-4.18883e-05
0.165017,0.00567092
0.166667,-8.82091e-06
0.166667,-0.000622432
0.166667,-0.000445539
0.174948,5.76277e-05
0.174948,0.000230589
0.18,0.000167397
0.18,0.000129915
0.18,0.00014961
0.18,0.000136381
0.189394,7.52253e-05
0.189394,7.39739e-05
0.189394,7.39739e-05
0.189394,0.00120944
0.2,-2.67528e-05
0.2,-0.000170523
0.2,9.00566e-06
0.2,0.000187147
0.2,-0.000290722
0.2,-0.000167107
0.2,0.00437015
0.2,-0.000596806
0.2,0.000212551
0.2,-0.000311244
0.2,0.000105047
0.2,-0.000130214
0.2,-0.000116712
0.2,-0.000517519
0.2,-0.000293532
0.2,0.000850236
0.2,-0.000602119
0.2,-0.000454673
0.2,0.000602466
0.2,-0.000442321
0.208,0.000968856
0.222,0.000953128
0.25,0.000743665
0.25,0.000557713
0.27,0.00050533
0.28,0.000628034
0.299963,0.0646452
0.3,0.00142646
0.3,0.000181357
0.3,0.000134913
0.3,0.000290675
0.3,0.000562107
0.3,0.005857
0.3,0.000944544
0.3,0.000896367
0.3,0.000165905
0.333708,0.0900845
0.36,0.000998975
0.36,0.000570054
0.36,0.00100825
0.36,0.00107725
0.36,0.00108333
0.372,0.00208496
0.372,0.00212349
0.372642,0.00125505
0.375,0.000980671
0.375,0.000822587
0.375,0.00121231
0.375,0.000855978
0.38,0.00118908
0.4,0.0396356
0.4,0.0264831
0.42,0.00317726
0.444444,0.00313694
0.445,0.0767694
0.45,0.00341915
0.454,0.114069
0.454,0.0195221
0.46,0.0828021
0.46,0.0884879
0.466667,0.00499802
0.5,0.0140036
0.5,0.00215934
0.54902,0.00189792
0.59988,0.0033485
0.6,0.00306564
0.6,0.00335974
0.6,0.0039433
0.666667,0.00293189
0.666667,0.00290731
0.7,0.00164796
0.73,0.00289189
0.742574,0.00303859
0.745,0.00172838
0.752381,0.00275155
0.78,0.00235061
0.78,0.00244391
0.78,0.00235473
0.78,0.002376
0.78,0.00231268
0.78,0.00250693
0.78,0.00249463
0.8,0.0022788
0.8,0.00261642
1.0,0.00264213
1.00889,0.00569431
1.11386,0.0024658
1.33333,0.00236608
1.5,0.00416004
1.75439,-0.000957
2.8,0.00163182
2.8,0.00163182
5.0,0.001636
8,-0.000472071
12.0482,0.00100472
448,0.00221658
448,0.0022521