File: KFI-RHO-LTA-UFI_paper/dependence_plot_data/KFI_H2OSi.csv
H$_2$O/Si,SHAP value
0.0,-0.00123282
0.0,-3.31237e-05
0.0,0.000250574
0.0,0.000148043
0.0,0.000222295
0.0,0.000162592
0.0,0.000136212
0.0,0.000261111
0.0,0.000259751
0.0,0.000313146
0.0,3.91332e-05
0.0,-3.18047e-05
0.0,0.000159634
0.0,0.000258931
0.0,0.000372616
0.0,-4.18351e-05
0.0,0.000114983
0.0,0.000145941
0.0,0.000191731
0.0,-6.98646e-06
0.0,-3.10726e-05
0.0,4.80817e-05
0.0,-4.70923e-05
0.0,0.000286212
0.0,0.00108469
0.0,0.00013834
0.0,8.93996e-05
0.0,0.000420003
0.0,0.000178939
0.0,0.000258931
0.0,0.000891534
0.0,0.000405018
0.0,0.000240302
0.0,-7.13935e-05
0.0,0.000104125
0.0,-0.000109793
0.0,0.000347791
0.0,9.30576e-05
0.0,5.53615e-05
0.0,0.000107029
0.0,9.43077e-05
0.0,0.000240669
0.0,0.000136037
0.0,-4.23548e-05
0.0,0.000369283
0.0,-3.4565e-05
0.0,0.000167224
0.17,7.22614e-05
0.318182,0.000266556
0.388889,0.000266643
0.45,0.000228422
0.614,-0.00184312
1.0,0.0015012
1.06667,3.50688e-05
1.78,0.00051622
1.78,0.000514702
1.80072,-0.000120124
2,0.000242376
2,0.000220602
2.04082,0.000124778
2.04082,0.000251177
2.079,0.00013261
2.10084,0.000140661
2.13333,0.000154417
2.23881,0.000177036
2.23881,0.000160822
2.5,0.000199046
2.5,0.000216449
2.5,0.000175783
2.5,0.000115719
2.85714,0.000137906
3,0.000171498
3,0.000252991
3,0.000175248
3.0,0.000355368
3.0,0.000242746
3.0,0.000197602
3.06,0.000309349
3.15,0.00021254
3.29997,0.000221788
3.29997,0.000202632
3.29997,0.000235807
3.29997,0.000226013
3.29997,0.000205734
3.3,0.000167854
3.3,0.000212506
3.5225,0.000189906
3.60144,0.000209981
3.86111,0.000220165
4,0.00109874
4.0,0.000197541
4.21053,0.000309185
4.47761,0.000165613
4.5,0.000145224
4.54545,0.000470489
4.54545,0.000247978
4.54545,0.000502518
4.54545,0.000223291
4.54545,0.000219218
4.62766,0.000286659
4.74716,0.000282839
4.74716,0.000287385
4.74716,0.000282461
4.78717,0.000267198
4.78723,0.000507846
4.78723,0.000286659
4.8006,0.000221965
4.84043,0.000355261
4.84043,0.000261731
4.89362,0.000573483
4.94681,0.000291047
4.94681,0.000290669
5,0.000355407
5,0.000468964
5,0.000268913
5,0.000507434
5,0.000533567
5,0.000374766
5,0.000414162
5,0.000445113
5,0.000392105
5,0.000372704
5,0.000237986
5,0.000538575
5,0.000471433
5,0.000196465
5.0,0.00019906
5.0,0.000471356
5.0,0.000489986
5.0,0.000283421
5.0,0.000240105
5,0.000246945
5,0.000446755
5,0.000391278
5,0.000228553
5,0.000394879
5,0.000817566
5,0.000269017
5,0.000218602
5,0.000292621
5,0.000534599
5,0.000259257
5,0.000394756
5.01636,0.000391925
5.10204,0.000304131
5.10204,0.000210878
5.16484,0.000371499
5.17857,0.000385098
5.19751,0.000212428
5.2521,0.000195803
5.33333,0.00022926
5.5,0.000439361
5.5,0.000514498
5.5,0.000299139
5.6,0.000191303
5.8,0.000275566
5.84307,0.000295495
5.9727,0.000316966
6,0.000212612
6,0.000253741
6.13333,0.000317893
6.25,0.00197332
6.33,0.000346467
6.5,0.000279141
6.66667,0.000167348
6.66667,0.00491613
6.8,0.000565349
7,0.000341407
7,0.000464864
7,0.000318772
7,0.000344184
7,0.000369342
7,0.000470814
7,0.000355245
7,0.000470412
7,0.000319747
7,0.000339729
7.2366,0.0863147
7.25,0.00020923
7.28,0.000446469
7.41667,0.00034706
7.5,0.000239839
7.5,0.000343745
7.5,0.000435452
7.5,0.00018063
7.68654,0.0626582
7.69992,0.000326061
7.69992,0.000282534
7.69992,0.000298977
7.69992,0.00030457
7.69992,0.000297825
7.75,0.000452693
7.89,0.00378662
8.18938,0.00645363
8.3,0.00105842
8.5,0.00711634
8.75,0.00161617
8.788,0.00153997
8.9876,-0.00106819
9.0,0.000285801
9.0,0.00102517
9.0,0.00115105
9,0.00131892
9.5,0.000580453
9.58333,0.00382
9.8,0.000200207
9.8,0.00020015
9.87,0.00014879
10,0.000509727
10,0.00018351
10,0.000503768
10,-0.000688108
10.0,0.000149532
10.0,3.62486e-05
10.0,-0.00144453
10.0,0.000208499
10.0,-0.00142323
10.0,8.536e-05
10.0,0.000143429
10.0,6.86905e-05
10.0,6.64974e-05
10.0,0.000329341
10.0,9.45545e-05
10.0,5.06149e-05
10.0,0.000533017
10.0,-0.00101769
10.0,-0.0016273
10.0,9.10332e-05
10.0,0.00013426
10.0,-1.41626e-05
10.0,0.000209186
10.0,-0.00145893
10.0,6.62061e-05
10.0,0.00020965
10.0,0.000528318
10.0,5.85401e-05
10.0,0.000117098
10.0,-0.00142323
10,-0.00180506
10,0.000183554
10,0.000174614
10,8.17085e-05
10,0.000175032
10.2041,6.39866e-05
10.395,4.78291e-05
10.5042,6.34346e-05
10.6061,1.60941e-05
10.6061,2.69667e-05
10.6061,2.9239e-05
10.6061,4.21007e-05
10.6061,4.98175e-05
10.6667,0.000159313
10.6667,5.57132e-05
10.6667,5.70217e-05
10.6667,7.25048e-05
10.6667,-3.56902e-05
10.83,0.000105382
10.8911,7.197e-05
11,5.57117e-05
11.0,3.0411e-05
11.0,-0.000742471
11.2833,0.000295477
11.2833,0.000292619
11.47,-3.36688e-06
11.6,-0.000256217
11.6,-0.000298618
11.6,-0.000239418
11.6977,0.000492903
11.8,1.63432e-05
11.8,1.63432e-05
12,7.89367e-06
12.0,0.000443116
12.0512,0.000796302
12.3457,8.21586e-05
12.3457,8.21586e-05
12.4375,0.000157218
12.6,-1.57049e-06
12.6875,8.3651e-05
13,6.91375e-05
13.0,0.000157866
13,0.000147768
13,6.00405e-05
13.12,6.03893e-05
13.5,-0.00173164
13.5,-0.00324323
13.5,-0.000887794
13.5,0.00026336
13.6459,-0.00083934
13.6459,-0.00081631
14,-0.00162819
14,0.000392667
14,0.000267986
14,-0.000119855
14,-0.000578008
14.0,-0.00157286
14.0,-0.000522969
14.0,2.76848e-05
14.0,-0.00025506
14,-0.000512063
14.1803,0.000118852
14.5,-7.09122e-05
14.7059,0.00293489
14.8,0.0077956
15,2.17469e-05
15,0.000125666
15,2.17469e-05
15,-3.27285e-05
15,9.44196e-05
15,6.39294e-05
15,0.000120048
15,-0.000109414
15,9.25245e-05
15,0.000117482
15,0.000201204
15,9.44061e-05
15,0.000197851
15,0.00021592
15,0.000462995
15,0.000150529
15,7.58932e-05
15,5.25927e-05
15.0,-0.000113271
15.0,0.000116142
15.0,-1.90401e-05
15.0,7.82129e-05
15.0,9.3792e-05
15.0,0.00016325
15.0,6.80296e-05
15.0,5.3467e-05
15.0,9.96403e-05
15.0,8.86915e-05
15.0,0.000132142
15.0,7.01646e-05
15.0,8.04288e-05
15.0,6.95195e-05
15.0,8.36713e-05
15.0,7.57696e-05
15.0,-4.43916e-06
15.0,-1.01856e-05
15.0,0.000141521
15,9.75106e-05
15,-0.000142282
15,-5.53782e-05
15,0.00013869
15,6.20732e-05
15,6.83414e-05
15,1.90631e-05
15.1515,0.000264042
15.1515,0.000120998
15.2,0.000324527
15.5,0.000118695
15.6,8.19404e-05
15.7169,0.00565154
15.8,0.0726049
15.9259,7.8971e-06
16.0,0.0474368
16.0,0.000622808
16.0,0.000622808
16.0,0.000499801
16.0,0.000382839
16,0.0238752
16,6.4442e-06
16.1681,0.000370414
16.2338,0.000806447
16.4998,0.000233533
16.4998,0.000247589
16.4998,0.000257727
16.4998,0.000280863
16.4998,0.000457014
16.4998,0.000289312
16.6667,-0.000487836
16.6667,-0.00112868
16.6667,0.00017096
16.6667,9.00972e-05
16.6667,0.000197143
16.6667,0.000240257
16.6667,0.000159504
16.6667,0.00103397
16.6667,0.000146621
16.6667,0.000149273
16.6667,0.000153917
17.1429,0.000244172
17.765,0.000392206
17.9,-2.05129e-05
17.9,1.77534e-06
18.0,0.000126968
18,0.000128301
18,0.00109053
19.2,0.000167225
19.2,0.000159076
19.2,0.000213076
19.5,0.000186179
19.5,0.000208808
19.5,0.000186477
19.5,0.000186122
19.5,0.000188652
19.5352,-0.000122699
20,-2.39597e-06
20,0.000131961
20,0.00013295
20,0.000414056
20,6.57387e-05
20,0.000136247
20,0.000103198
20,8.55236e-06
20,0.000414626
20,0.000316687
20,0.000183122
20,0.000228984
20,-1.89429e-05
20,9.09753e-05
20,0.000114995
20,0.000414618
20,8.402e-05
20.0,0.000104971
20.0,0.000136165
20.0,9.35712e-05
20.0,0.000116623
20.0,0.000260058
20.0,0.000224728
20.0,0.000151492
20.0,0.000104767
20.0,8.19558e-05
20.0,8.47537e-05
20.0,8.57591e-05
20.0,-8.69565e-05
20.0,-4.98073e-05
20.0,0.00010334
20.0,7.6473e-05
20.0,0.000104767
20.0,0.000100129
20.0,0.000110631
20,0.000393685
20,0.000212036
20,-0.00230205
20,0.0001319
20,0.0001319
20,0.000293921
20,0.000170713
20,0.000128682
20,0.000118411
20,-0.000815248
20,0.000131549
20,0.000157124
20.4,0.000129697
20.4,0.000137411
20.4,0.000137411
20.7,0.000129915
21,0.000165583
21,0.000180658
21,0.000198777
21.135,0.000163607
21.135,0.000248057
21.16,0.000124346
21.5686,-0.00914614
22,0.000143621
22.2222,0.000199267
22.2222,7.93401e-05
22.5,9.19426e-05
22.7273,0.00014247
22.7273,0.000170293
22.7273,0.000206884
22.7273,0.000220626
23.2759,0.000124579
23.5,0.00013988
23.5189,-1.29558e-05
23.6,-0.00204387
23.6,-0.00109903
23.6,-0.00081617
23.8095,-0.000269246
24.0,0.000159182
24.0,-7.15529e-05
24.0625,2.07996e-06
24.75,-0.00101634
24.7619,0.00018003
25,7.71718e-05
25,0.000250907
25,0.00018972
25,1.83494e-05
25,0.000185324
25,-7.56995e-05
25,0.000108045
25,0.000186114
25.0,5.44056e-05
25.0,8.64671e-05
25,-0.000886175
25,-0.000265069
25,6.72634e-05
25,0.000159803
25,3.34697e-05
26.0,0.000177292
26,-8.74249e-05
26,-4.083e-05
26.4,-0.000539885
27.0,0.000184348
27.0507,-4.71321e-05
27.7778,0.000126513
27.9444,-9.11102e-05
28,0.000109239
28,0.000186145
28,0.000111848
28.4,7.73134e-05
29,0.000171348
30,4.76762e-05
30,0.000121102
30,-0.000161467
30,0.000368119
30,3.58115e-05
30,-2.08803e-05
30,1.32508e-05
30,1.74037e-05
30,-4.20959e-05
30,0.000126781
30,3.27725e-05
30,7.58072e-05
30,-2.60247e-05
30,0.000151277
30,-2.11488e-05
30,7.26901e-06
30,7.659e-05
30,0.000225489
30,9.49419e-05
30,6.62068e-05
30,4.40486e-05
30,5.21917e-05
30,2.57523e-05
30,2.19038e-05
30,0.000114187
30,2.59681e-05
30,7.8017e-06
30,4.10354e-05
30,2.42905e-05
30,0.000226007
30,3.44511e-05
30,2.49236e-05
30,1.80871e-05
30,3.85965e-05
30,1.59371e-05
30,-6.3187e-05
30,0.000203704
30.0,8.20048e-05
30.0,8.06615e-05
30.0,-3.74787e-05
30.0,-0.000141406
30.0,0.000188838
30.0,4.87997e-05
30.0,0.000233911
30.0,6.61372e-05
30.0,0.000123315
30.0,2.19038e-05
30.0,4.58088e-05
30.0,-1.87233e-05
30.0,6.30252e-05
30.0,2.34695e-05
30.0,0.000308077
30.0,5.68667e-05
30.0,-2.08803e-05
30.0,4.42587e-05
30.0,0.000142954
30.0,7.54452e-05
30.0,5.75935e-05
30.0,3.35326e-06
30.0,1.83204e-06
30.0,-5.3173e-06
30.0,5.53785e-05
30,0.000105307
30,3.64096e-05
30,9.79405e-06
30,2.05489e-05
30,1.55063e-05
30,1.96801e-05
30,-2.78263e-05
30,9.57538e-05
30,3.42957e-05
30,5.29621e-05
30,9.73853e-05
30,-5.82373e-05
30,5.86984e-05
30,1.55063e-05
30,-0.000109968
30,-0.000144896
30,-7.60874e-06
30,3.04836e-05
30,3.14168e-05
30,-1.14878e-05
30,8.03934e-05
30,9.61085e-07
30,1.59371e-05
30,0.000341903
30,-1.26216e-05
30,7.41287e-06
30,3.27265e-05
30,9.04176e-05
30,1.66387e-05
30,3.27639e-05
30,0.00021537
30,7.84247e-05
30,-1.68128e-05
30,-1.77424e-05
30.45,0.000137906
31,0.000180463
31,0.000180031
31,0.000182805
31.0,-7.35919e-05
31,-7.99949e-05
31.2,9.06204e-05
31.2,1.02003e-05
31.9333,-0.000212922
32.2667,-0.00101167
33.2,-0.000485721
33.2,-0.000485721
35,-0.00100284
35,-0.00112312
35,2.72691e-06
35,-0.00104953
35,-0.00116265
35,3.065e-05
35,-0.000191442
35,1.53349e-05
35,4.43251e-05
35,9.6284e-05
35,-0.00103109
35,-0.00103397
35,6.46934e-06
35,-0.000105296
35,6.82947e-06
35.0,-0.000579735
35.0,-0.000797903
35.0,-9.9786e-06
35.0,-0.000194274
35.0,-0.00024038
35.0,-0.000280916
35.0,-0.000280916
35,-0.00106498
35,-0.000960257
35,-0.00012235
35.04,-5.65129e-05
35.04,-6.09993e-05
35.1333,-1.72732e-05
35.3,-0.00014164
35.5333,0.000174946
35.5625,0.000115744
36,-0.000103368
36,-0.000103368
36,0.000131853
36,-3.93004e-05
36,1.36146e-05
36.0144,8.41403e-05
36.7816,-3.06697e-06
37.1818,-0.000208035
37.182,-0.000172445
37.182,-0.000169616
37.182,-0.000309223
37.5,1.27133e-05
37.5,-4.52649e-05
38,-2.45259e-05
38.0,1.74356e-05
38.0711,3.5412e-05
38.0711,3.5412e-05
38.2759,-3.32237e-05
38.4124,-3.49392e-05
38.6127,-4.90974e-05
38.6598,2.84143e-05
39.5833,-0.000669768
40,-0.000251291
40,-8.66159e-07
40,-0.000135017
40,-0.000244789
40,3.76411e-05
40,-0.000144469
40,-0.000147419
40,-0.000134376
40,-9.78162e-05
40,0.000205257
40,-0.000147418
40,-2.85317e-06
40,-0.000145812
40,-2.23795e-05
40,3.76411e-05
40,-0.00100599
40,7.06866e-05
40,-0.00011377
40,-0.000113895
40,-0.000284598
40,-0.000131679
40,7.89597e-05
40.0,3.76411e-05
40.0,-0.000665537
40.0,6.64755e-05
40.0,-0.000286214
40.0,-6.12276e-05
40.0,-0.00119808
40.0,3.69746e-05
40.0,3.76411e-05
40.0,-8.57757e-05
40.0,-4.52745e-05
40.0,-2.8266e-05
40.0,-0.00026265
40.0,-0.000257336
40.0,-1.25888e-05
40.0,-8.03027e-05
40.0,-0.000129766
40.0,-0.00020899
40.0,2.52326e-05
40.0,1.13124e-05
40.0,-3.98713e-05
40.0,-0.00103619
40.0,-0.000121149
40.0,-0.00119808
40.0,-4.79891e-05
40.0,-0.000279036
40.0,-0.000206962
40.0,3.76411e-05
40.0,-0.000356344
40.0,-6.33716e-05
40.0,-1.20302e-05
40.0,4.3402e-05
40.0,-4.77833e-05
40.0,-8.57757e-05
40.0,-0.00027019
40,-3.97177e-05
40,-0.000191001
40,-0.00117664
40,-7.03e-05
40,-0.000118616
40,-0.000281058
40,-0.000149494
40,-0.000110781
40,-0.000176901
40,-0.00119789
40,3.90533e-06
40,-0.000142752
40,-4.75358e-05
40,-8.91572e-05
40,-9.35645e-05
40,5.07864e-06
40,2.63594e-05
40,-9.73887e-05
40,-0.00123039
40,-0.000181951
40,-0.000333416
40,-9.74328e-05
40,-0.00012949
40,-0.00147001
40,-0.00117664
40,3.46e-05
40,-0.000116035
40,-0.0012056
40,-0.000281058
40,-0.000118616
40,7.72494e-05
40,-0.000262648
40,-0.00103239
40,5.23048e-05
40,6.80081e-05
40,2.2903e-05
40.3297,-0.000188335
40.6,-0.0037868
40.84,-3.41823e-06
40.84,-2.73164e-06
40.8889,-0.000210616
41,-0.00137967
41.25,2.75238e-05
41.5,-5.81249e-05
41.72,-0.000113599
42,-0.00037486
42,-0.00010525
42,-0.00033906
42,-0.000186432
42,-0.000357922
42,-5.07769e-06
42,-0.000119465
42.0,-3.14853e-05
42.0,-2.95857e-05
42.0,-3.21692e-05
42.0,-8.13486e-05
42.2,-3.75285e-05
42.3077,1.12714e-05
42.35,-3.50443e-06
42.848,-0.00041093
42.848,-0.000414364
43.7584,4.64731e-05
43.7584,-0.000119028
43.7584,1.35576e-05
43.7584,2.73263e-05
43.7584,-1.99608e-05
43.7584,-9.57913e-06
43.7584,3.65599e-05
43.7584,-1.83533e-05
43.77,-6.94024e-05
44,-2.10139e-05
44,3.38538e-05
44,-2.43552e-06
44.0,-9.45537e-06
44.0,-1.57017e-05
44.0,-1.57017e-05
44,2.50741e-07
44,-0.0003
44,1.74019e-05
44.4444,-0.00142049
44.8845,-0.000627239
45,-4.11777e-05
45,-0.000211118
45,-0.000249831
45,-3.9323e-05
45.0,-7.90379e-05
45.0,-2.02734e-06
45.0,4.16776e-05
45.0,5.5354e-05
45.0,-0.000201556
45,-0.000160357
45,-6.84754e-05
45,7.76033e-06
45,-7.53489e-05
45,-5.67298e-05
45,-4.88678e-05
45,-4.31859e-05
45,-0.000225369
45.4545,-5.12508e-05
45.4545,-0.00156434
45.4545,-8.08924e-05
45.4545,-0.00156434
45.4545,-0.00171959
45.5,-3.89092e-05
45.5,-7.16534e-05
45.6665,-0.000208367
45.72,-0.000302272
45.8746,-0.00927573
46.6667,-0.000339581
46.6667,-0.000407366
48,-0.00014774
50,-1.17112e-05
50,2.55453e-05
50,-2.43796e-05
50,-0.00201616
50.0,-3.72674e-05
50,-8.2009e-05
50,-0.00299805
50,3.86537e-05
50,-0.000298641
50,-0.000206273
50,-0.000193296
50,-0.000219372
50,5.75617e-05
50.9356,-0.000741482
52,-3.64854e-05
54,7.14309e-06
54,-2.59656e-05
54.1667,-6.34087e-05
54.1667,-2.78104e-05
56.3725,1.2431e-05
57,0.00276696
57.2414,0.00217083
58.3333,0.000859296
58.6538,-9.99031e-06
58.8235,-0.00153322
60,1.85051e-05
60,9.00126e-07
60,3.12e-05
60,2.89381e-05
60,2.07935e-05
60,7.41037e-05
60.0,9.37331e-05
60,-0.000105348
60,-0.000216154
60,1.7857e-05
62.2222,0.000822834
62.5,8.23732e-06
64,0.000112994
65,-0.000348759
66.3636,0.000345006
66.6667,4.87131e-05
69.8,3.18756e-05
75,1.24988e-05
75,-4.39769e-05
76.9231,-0.00155664
80,5.01741e-05
80,-5.1597e-06
83.3333,6.84671e-07
85.0,3.32734e-05
90.9091,0.00473315
92,7.29857e-05
95,6.83343e-05
95,-0.000303078
98.9583,2.4008e-05
100,-0.000266142
100,-0.00084829
100,7.47964e-05
100.0,-0.00281577
100.0,-0.000149222
100.0,-0.000421156
100.0,-0.00135268
100.0,-0.000155202
100.0,0.000100528
100.0,-6.02016e-05
100,-0.00551535
100,-0.000521323
100,-0.000948081
100,-0.000694949
100,-0.000698837
110,7.03417e-05
111.0,9.55469e-05
116.0,-0.000209773
120.0,-0.000170008
125.0,1.33469e-05
132.0,-4.67483e-06
136.036,-0.00237539
139.333,-0.0001625
161.765,0.000933787
161.765,0.000925245
174.0,-0.000886083
180.0,-0.000166828
200,0.000160677
200,0.000240113
200.0,0.000244488
200,-0.000206626
240,-7.78267e-05
250,4.79768e-05
400,-0.000179549
400,-0.00216727
400,-0.0023248
485.542,-0.00782811
555,-9.27266e-06
555,2.65049e-05
714.286,0.000164249