File: KFI-RHO-LTA-UFI_paper/dependence_plot_data/KFI_SrSi.csv
Sr/Si,SHAP value
0.0,-0.00159539
0.0,-0.00033707
0.0,-0.000241728
0.0,-0.00053909
0.0,-0.000248706
0.0,-0.000297416
0.0,-0.00255143
0.0,-0.000898065
0.0,-0.000221491
0.0,-0.000222402
0.0,-0.000727752
0.0,-0.00048076
0.0,-0.000299142
0.0,-0.000223203
0.0,-0.000237888
0.0,-0.000755743
0.0,-0.00118083
0.0,-0.000169599
0.0,-0.000279868
0.0,-0.000296331
0.0,-0.000487226
0.0,-0.000291255
0.0,-0.000282605
0.0,-0.000710003
0.0,-0.00255233
0.0,-0.000191946
0.0,-0.000525031
0.0,-0.000236416
0.0,-0.000694671
0.0,-0.000413862
0.0,-0.000201371
0.0,-0.000314225
0.0,-0.000478837
0.0,-0.000784314
0.0,-0.00033908
0.0,-0.000377749
0.0,-0.000338668
0.0,-0.000437682
0.0,-0.000191506
0.0,-0.00023093
0.0,-0.000213325
0.0,-0.000236276
0.0,-0.000198371
0.0,-0.000189226
0.0,-0.000213237
0.0,-0.000523395
0.0,-0.000388185
0.0,-0.000297568
0.0,-0.000425005
0.0,-0.000208726
0.0,-0.000398237
0.0,-0.000367833
0.0,-0.000241905
0.0,-0.000223665
0.0,-0.000164783
0.0,-0.000241984
0.0,-0.000324942
0.0,-0.00027204
0.0,-0.000375399
0.0,-0.000215088
0.0,-0.000243348
0.0,-0.000360925
0.0,-0.000369821
0.0,-0.000242411
0.0,-0.000202542
0.0,-0.000276341
0.0,-0.000447569
0.0,-0.00704207
0.0,-0.000488572
0.0,-0.000288319
0.0,-0.000289039
0.0,-0.000265195
0.0,-0.000347947
0.0,-0.000375787
0.0,-0.000518046
0.0,-0.000363534
0.0,-0.000382289
0.0,-0.000404888
0.0,-0.000258801
0.0,-0.000409479
0.0,-0.000236914
0.0,-0.000285587
0.0,-0.000235096
0.0,-0.00136998
0.0,-0.000501446
0.0,-0.00021707
0.0,-0.00024402
0.0,-0.000218819
0.0,-0.000150701
0.0,-0.000398135
0.0,-0.00042436
0.0,-0.000570894
0.0,-0.000341984
0.0,-0.000217211
0.0,-0.000265866
0.0,-0.00119356
0.0,-0.00220806
0.0,-0.000339103
0.0,-0.000223311
0.0,-0.000232957
0.0,-0.000343648
0.0,-0.000667531
0.0,-0.000241831
0.0,-0.000411045
0.0,-0.000451163
0.0,-0.000254519
0.0,-0.000253542
0.0,-0.000747372
0.0,-0.000486793
0.0,-0.000427975
0.0,-0.00019665
0.0,-0.000240481
0.0,-0.000305886
0.0,-0.000205454
0.0,-0.000276167
0.0,-0.000339645
0.0,-0.000825376
0.0,-0.00025208
0.0,-0.000238584
0.0,-0.000470789
0.0,-0.000436896
0.0,-0.000466057
0.0,-0.000301436
0.0,-0.000438178
0.0,-0.000355257
0.0,-0.00055513
0.0,-0.000567759
0.0,-0.00032752
0.0,-0.000295109
0.0,-0.000748607
0.0,-0.000472621
0.0,-0.00055452
0.0,-0.000992601
0.0,-0.00208484
0.0,-0.000560026
0.0,-0.000294056
0.0,-0.000311705
0.0,-0.000195186
0.0,-0.000320167
0.0,-0.000340234
0.0,-0.00049953
0.0,-0.00157564
0.0,-0.000247167
0.0,-0.000533428
0.0,-0.00019701
0.0,-0.000507825
0.0,-0.000486733
0.0,-0.000354288
0.0,-0.000608034
0.0,-0.00026339
0.0,-0.000233311
0.0,-0.000283787
0.0,-0.00148101
0.0,-0.000967198
0.0,-0.000273944
0.0,-0.000362374
0.0,-0.000199639
0.0,-0.000514458
0.0,-0.000250084
0.0,-0.000237612
0.0,-0.00073427
0.0,-0.000207788
0.0,-0.000839574
0.0,-0.000429513
0.0,-0.000264861
0.0,-0.0004545
0.0,-0.000369836
0.0,-0.00118083
0.0,-0.00034309
0.0,-0.000281449
0.0,-0.000391304
0.0,-0.000286802
0.0,-0.000247595
0.0,-0.000226908
0.0,-0.000217567
0.0,-0.000255389
0.0,-0.000169098
0.0,-0.000240426
0.0,-0.00021152
0.0,-0.00160476
0.0,-0.000226032
0.0,-0.000323222
0.0,-0.00039077
0.0,-0.000349689
0.0,-0.000422458
0.0,-0.000296668
0.0,-0.000442623
0.0,-0.000260212
0.0,-0.000419029
0.0,-0.000652879
0.0,-0.000512858
0.0,-0.000228517
0.0,-0.000395043
0.0,-0.00179843
0.0,-0.00036979
0.0,-0.000272812
0.0,-0.000415488
0.0,-0.000531715
0.0,-0.00381314
0.0,-0.000202713
0.0,-0.000193498
0.0,-0.000229948
0.0,-0.000251393
0.0,-0.000352732
0.0,-0.00144274
0.0,-0.000311141
0.0,-0.000531081
0.0,-0.000231442
0.0,-0.000299493
0.0,-0.000260661
0.0,-0.000237216
0.0,-0.000254075
0.0,-0.000252491
0.0,-0.000440064
0.0,-0.000205123
0.0,-0.000416111
0.0,-0.000325975
0.0,-0.000257491
0.0,-0.000635919
0.0,-0.000287397
0.0,-0.000373598
0.0,-0.000372384
0.0,-0.000253174
0.0,-0.000354501
0.0,-0.000340225
0.0,-0.000629501
0.0,-0.00198999
0.0,-0.000346592
0.0,-0.000280758
0.0,-0.000203309
0.0,-0.000242338
0.0,-0.000271208
0.0,-0.000211925
0.0,-0.000218053
0.0,-0.000283579
0.0,-0.000412415
0.0,-0.000375187
0.0,-0.000200795
0.0,-0.000210609
0.0,-0.00019311
0.0,-0.000431851
0.0,-0.000510678
0.0,-0.000487517
0.0,-0.000749797
0.0,-0.000322655
0.0,-0.00103918
0.0,-0.000372138
0.0,-0.000391862
0.0,-0.000249997
0.0,-0.00182237
0.0,-0.000220187
0.0,-0.000271586
0.0,-0.000709027
0.0,-0.000298067
0.0,-0.000451481
0.0,-0.000164496
0.0,-0.000186885
0.0,-0.000159941
0.0,-0.00022872
0.0,-0.000481068
0.0,-0.000740715
0.0,-0.000260605
0.0,-0.00046325
0.0,-0.000235932
0.0,-0.000237941
0.0,-0.000387641
0.0,-0.00024596
0.0,-0.000241631
0.0,-0.000230398
0.0,-0.00124695
0.0,-0.000483449
0.0,-0.000615373
0.0,-0.000228593
0.0,-0.00031189
0.0,-0.0021302
0.0,-0.000245913
0.0,-0.000240897
0.0,-0.000708835
0.0,-0.000300037
0.0,-0.000419434
0.0,-0.000198054
0.0,-0.000778113
0.0,-0.000288564
0.0,-0.000289552
0.0,-0.000372485
0.0,-0.000376925
0.0,-0.000230356
0.0,-0.000366384
0.0,-0.000816975
0.0,-0.000517663
0.0,-0.000531941
0.0,-0.000375822
0.0,-0.00122691
0.0,-0.000766404
0.0,-0.000305287
0.0,-0.000552649
0.0,-0.000206672
0.0,-0.000337181
0.0,-0.000893537
0.0,-0.000346757
0.0,-0.000184858
0.0,-0.00083321
0.0,-0.000319084
0.0,-0.000655092
0.0,-0.000318742
0.0,-0.000212912
0.0,-0.000373846
0.0,-0.0003238
0.0,-0.000270311
0.0,-0.000240962
0.0,-0.000391124
0.0,-0.000239701
0.0,-0.000757598
0.0,-0.0001509
0.0,-0.000225197
0.0,-0.000218538
0.0,-0.000730244
0.0,-0.000209828
0.0,-0.000535807
0.0,-0.000338564
0.0,-0.000538866
0.0,-0.000352693
0.0,-0.000285729
0.0,-0.000518744
0.0,-0.00040946
0.0,-0.000394453
0.0,-0.00119351
0.0,-0.000232587
0.0,-0.000386351
0.0,-0.00039363
0.0,-0.000568535
0.0,-0.000331731
0.0,-0.00164245
0.0,-0.000458288
0.0,-0.000206838
0.0,-0.000466057
0.0,-0.000220394
0.0,-0.000313424
0.0,-0.000352933
0.0,-0.000403825
0.0,-0.000359263
0.0,-0.000381099
0.0,-0.00025183
0.0,-0.000548559
0.0,-0.000214518
0.0,-0.000239513
0.0,-0.000490308
0.0,-0.000209507
0.0,-0.000324372
0.0,-0.000369821
0.0,-0.000211019
0.0,-0.000205851
0.0,-0.000330853
0.0,-0.000164903
0.0,-0.000304665
0.0,-0.00037764
0.0,-0.000516376
0.0,-0.000420886
0.0,-0.000409845
0.0,-0.000579896
0.0,-0.000173638
0.0,-0.000748396
0.0,-0.0013766
0.0,-0.000516991
0.0,-0.00209961
0.0,-0.000196882
0.0,-0.000229871
0.0,-0.000457366
0.0,-0.00076907
0.0,-0.000144853
0.0,-0.000800468
0.0,-0.000255631
0.0,-0.000286363
0.0,-0.000317175
0.0,-0.000394714
0.0,-0.000696065
0.0,-0.000427634
0.0,-0.000239601
0.0,-0.000314671
0.0,-0.000232957
0.0,-0.000197266
0.0,-0.000239837
0.0,-0.00044555
0.0,-0.000305036
0.0,-0.00067988
0.0,-0.000193367
0.0,-0.00161119
0.0,-0.00228902
0.0,-0.000242124
0.0,-0.000233722
0.0,-0.00122958
0.0,-0.00118496
0.0,-0.000240915
0.0,-0.000385814
0.0,-0.000417636
0.0,-0.000155052
0.0,-0.000945881
0.0,-0.000188522
0.0,-0.000553121
0.0,-0.000231783
0.0,-0.000294619
0.0,-0.00153162
0.0,-0.000381099
0.0,-0.00100879
0.0,-0.000262165
0.0,-0.00022695
0.0,-0.000322227
0.0,-0.000468704
0.0,-0.00053299
0.0,-0.000291045
0.0,-0.000122343
0.0,-0.000218698
0.0,-0.000189484
0.0,-0.000845149
0.0,-0.000262163
0.0,-0.000203064
0.0,-0.000264558
0.0,-0.00126622
0.0,-0.00109092
0.0,-0.000547061
0.0,-0.000199151
0.0,-0.000285587
0.0,-0.00248195
0.0,-0.000233901
0.0,-0.000251499
0.0,-0.000158744
0.0,-0.000292288
0.0,-0.000234376
0.0,-0.000233404
0.0,-0.000217892
0.0,-0.000302732
0.0,-0.000174863
0.0,-0.000398438
0.0,-0.000234943
0.0,-0.000571052
0.0,-0.00029781
0.0,-0.000887869
0.0,-0.000271208
0.0,-0.000179975
0.0,-0.000492014
0.0,-0.000240942
0.0,-0.000351542
0.0,-0.000596898
0.0,-0.000454456
0.0,-0.000352534
0.0,-0.000318255
0.0,-0.000185343
0.0,-0.000397187
0.0,-0.000581421
0.0,-0.000476255
0.0,-0.000507554
0.0,-0.000422597
0.0,-0.000223616
0.0,-0.000838486
0.0,-0.000274537
0.0,-0.000619372
0.0,-0.000333967
0.0,-0.000239445
0.0,-0.000262222
0.0,-0.000304515
0.0,-0.000446515
0.0,-0.000144853
0.0,-0.00038774
0.0,-0.000244353
0.0,-0.000477575
0.0,-0.000983904
0.0,-0.000459507
0.0,-0.000329492
0.0,-0.000252038
0.0,-0.000255861
0.0,-0.000230224
0.0,-0.000331182
0.0,-0.000357261
0.0,-0.000362623
0.0,-0.000335858
0.0,-0.000224189
0.0,-0.000451242
0.0,-0.000242196
0.0,-0.000380214
0.0,-0.000619673
0.0,-0.000440867
0.0,-0.000349966
0.0,-0.000465578
0.0,-0.000501194
0.0,-0.000517439
0.0,-0.000240663
0.0,-0.000319262
0.0,-0.000490498
0.0,-0.00124155
0.0,-0.000293091
0.0,-0.00136998
0.0,-0.000416111
0.0,-0.00052917
0.0,-0.00022362
0.0,-0.00132557
0.0,-0.000164662
0.0,-0.000242252
0.0,-0.000296921
0.0,-0.000201198
0.0,-0.000321536
0.0,-0.00134635
0.0,-0.00359018
0.0,-0.000440991
0.0,-0.000239332
0.0,-0.00175887
0.0,-0.000263599
0.0,-0.000543295
0.0,-0.000431316
0.0,-0.000720485
0.0,-0.000228815
0.0,-0.000408516
0.0,-0.000225332
0.0,-0.000182642
0.0,-0.00023556
0.0,-0.000237015
0.0,-0.000294347
0.0,-0.00051822
0.0,-0.000531793
0.0,-0.000255631
0.0,-0.000389088
0.0,-0.000342757
0.0,-0.000284779
0.0,-0.000477654
0.0,-0.000196484
0.0,-0.000226674
0.0,-0.000302976
0.0,-0.000228309
0.0,-0.000922582
0.0,-0.00115619
0.0,-0.000467388
0.0,-0.000254492
0.0,-0.00030524
0.0,-0.000431097
0.0,-0.00135377
0.0,-0.000237061
0.0,-0.00024416
0.0,-0.000236991
0.0,-0.000300031
0.0,-0.000423018
0.0,-0.0011819
0.0,-0.000326238
0.0,-0.000412175
0.0,-0.000260174
0.0,-0.000422828
0.0,-0.000481447
0.0,-0.000363335
0.0,-0.000452341
0.0,-0.000424827
0.0,-0.000466856
0.0,-0.000213814
0.0,-0.000487242
0.0,-0.000294888
0.0,-0.000466193
0.0,-0.000363201
0.0,-0.000619828
0.0,-0.000539961
0.0,-0.000235595
0.0,-0.00057195
0.0,-0.000466301
0.0,-0.000305036
0.0,-0.000363821
0.0,-0.000226933
0.0,-0.000256762
0.0,-0.000373642
0.0,-0.000234434
0.0,-0.000769305
0.0,-0.000217575
0.0,-0.000280473
0.0,-0.000337635
0.0,-0.000210886
0.0,-0.000194769
0.0,-0.000249314
0.0,-0.000749742
0.0,-0.000384276
0.0,-0.000172416
0.0,-0.000381967
0.0,-0.000310899
0.0,-0.000324451
0.0,-0.000201139
0.0,-0.000272684
0.0,-0.000551496
0.0,-0.000208673
0.0,-0.000248081
0.0,-0.000200848
0.0,-0.000231921
0.0,-0.000200591
0.0,-0.000224621
0.0,-0.000317729
0.0,-0.000259677
0.0,-0.00021152
0.0,-0.000221493
0.0,-0.000336777
0.0,-0.000380155
0.0,-0.00225569
0.0,-0.000296364
0.0,-0.000295059
0.0,-0.000628285
0.0,-0.000360321
0.0,-0.000257483
0.0,-0.000295367
0.0,-0.000400144
0.0,-0.000218272
0.0,-0.000221848
0.0,-0.00060805
0.0,-0.000291726
0.0,-0.000520328
0.0,-0.000243965
0.0,-0.000190404
0.0,-0.000341201
0.0,-0.000411618
0.0,-0.000224211
0.0,-0.000277151
0.0,-0.000474856
0.0,-0.00138555
0.0,-0.000492698
0.0,-0.00163452
0.0,-0.000237587
0.0,-0.00025213
0.0,-0.000197687
0.0,-0.00046138
0.0,-0.000253893
0.0,-0.00132235
0.0,-0.000242338
0.0,-0.000433175
0.0,-0.000269971
0.0,-0.0004435
0.0,-0.000199857
0.0,-0.000247078
0.0,-0.00073427
0.0,-0.000546386
0.0,-0.000272719
0.0,-0.000361256
0.0,-0.000235251
0.0,-0.000152784
0.0,-0.000561528
0.0,-0.000273539
0.0,-0.00085637
0.0,-0.000221891
0.0,-0.000565671
0.0,-0.000237073
0.0,-0.000608034
0.0,-0.00019261
0.0,-0.000398761
0.0,-0.000136579
0.0,-0.000239445
0.0,-0.00051474
0.0,-0.000477393
0.0,-0.000254916
0.0,-0.000370375
0.0,-0.000297364
0.0,-0.000267915
0.0,-0.00264945
0.0,-0.000288184
0.0,-0.00052422
0.0,-0.000317175
0.0,-0.00023698
0.0,-0.000709575
0.0,-0.000157978
0.0,-0.00022851
0.0,-0.000269201
0.0,-0.000394094
0.0,-0.000172951
0.0,-0.000236415
0.0,-0.000727752
0.0,-0.000518912
0.0,-0.000501897
0.0,-0.000238814
0.0,-0.000236368
0.0,-0.000316322
0.0,-0.000313906
0.0,-0.000377757
0.0,-0.000331228
0.0,-0.000456715
0.0,-0.000358846
0.0,-0.000296754
0.0,-0.000288946
0.0,-0.000675818
0.0,-0.00029504
0.0,-0.000296859
0.0,-0.000417207
0.0,-0.000217657
0.0,-0.000212551
0.0,-0.000238347
0.0,-0.000293652
0.0,-0.000222338
0.0,-0.000401253
0.0,-0.000302909
0.0,-0.00103774
0.0,-0.00036216
0.0,-0.000227482
0.0,-0.000458344
0.0,-0.000195594
0.0,-0.00043159
0.0,-0.000237431
0.0,-0.000411207
0.0,-0.000255522
0.0,-0.000185778
0.0,-0.000196161
0.0,-0.000364888
0.0,-0.000282131
0.0,-0.000227459
0.0,-0.000438277
0.0,-0.000204902
0.0,-0.0015575
0.0,-0.000520155
0.0,-0.000217711
0.0,-0.000530719
0.0,-0.0016744
0.0,-0.000419617
0.0,-0.000524212
0.0,-0.00024263
0.0,-0.00139667
0.0,-0.000224348
0.0,-0.00051602
0.0,-0.000261012
0.0,-0.000326363
0.0,-0.000229985
0.0,-0.000356143
0.0,-0.000543196
0.0,-0.00154538
0.0,-0.00015609
0.0,-0.000244115
0.0,-0.000923748
0.0,-0.0006835
0.0,-0.000394887
0.0,-0.000304848
0.0,-0.000323695
0.0,-0.000228124
0.0,-0.000464673
0.0,-0.000270531
0.0,-0.00065196
0.0,-0.000387475
0.0,-0.000272577
0.0,-0.000467223
0.0,-0.000468851
0.0,-0.000238651
0.0,-0.00023279
0.0,-0.000336808
0.0,-0.000197236
0.0,-0.000381048
0.0,-0.00026391
0.0,-0.000172416
0.0,-0.000295227
0.0,-0.000390121
0.0,-0.00140132
0.0,-0.000231921
0.0,-0.000440622
0.0,-0.000479177
0.0,-0.000485785
0.0,-0.000380116
0.0,-0.000365949
0.0,-0.000562709
0.0,-0.0011432
0.0,-0.00073496
0.0,-0.000244385
0.0,-0.000264943
0.0,-0.000320614
0.0,-0.000195354
0.0,-0.000236855
0.0,-0.000379128
0.0,-0.000275746
0.0,-0.000529415
0.0,-0.000477385
0.0,-0.000249281
0.0,-0.000349367
0.0,-0.000769348
0.0,-0.000341744
0.0,-0.000217877
0.0,-0.00117162
0.0,-0.000381099
0.0,-0.00042509
0.0,-0.000494285
0.0,-0.000412175
0.0,-0.000839169
0.0,-0.000489483
0.0,-0.000228989
0.0,-0.000169154
0.0,-0.000762515
0.0,-0.000359472
0.0,-0.00066568
0.0,-0.000376919
0.0,-0.000237062
0.0,-0.00059289
0.0,-0.000359919
0.0,-0.000263896
0.0,-0.000242253
0.0,-0.000411362
0.0,-0.00118083
0.0,-0.00027212
0.0,-0.000299493
0.0,-0.000913746
0.0,-0.000259228
0.0,-0.000454534
0.0,-0.000324222
0.0,-0.000322416
0.0,0.000316621
0.0,-0.000226302
0.0,-0.000338952
0.0,-0.000315637
0.0,-0.00052213
0.0,-0.000218861
0.0,-0.000392391
0.0,-0.000260322
0.0,-0.00154594
0.0,-0.0011297
0.0,-0.000248837
0.0,-0.000273401
0.0,-0.000354288
0.0,-0.000271054
0.0,-0.000532474
0.0,-0.000204229
0.0,-0.00038364
0.0,-0.000225577
0.0,-0.00183394
0.0,-0.000471056
0.0,-0.000267384
0.0,-0.000296679
0.0,-0.000280415
0.0,-0.00044038
0.0,-0.000346175
0.0,-0.000386093
0.0,-0.000435248
0.0,-0.000826691
0.0,-0.000185185
0.0,-0.000531463
0.0,-0.0002539
0.0,-0.000280932
0.0,-0.000790905
0.0,-0.000318029
0.0,-0.000253161
0.0,-0.000236932
0.0,-0.00036672
0.0,-0.000317175
0.0,-0.000289932
0.0,-0.000294145
0.0,-0.000489445
0.0,-0.0001806
0.0,-0.000210757
0.0,-0.000337181
0.0,-0.000300183
0.0,-0.000299847
0.0,-0.000511237
0.0,-0.000264333
0.0,-0.000300112
0.0,-0.000262284
0.0,-0.000155958
0.0,-0.000324949
0.0,-0.00318513
0.0,-0.000375734
0.0,-0.000297279
0.0,-0.000217985
0.0,-0.000178483
0.0,-0.000216842
0.0,-0.00143418
0.0,-0.000366504
0.0,-0.000187274
0.0,-0.000292913
0.0,-0.000501301
0.0,-0.000464549
0.0,-0.000282131
0.0,-0.000476255
0.0,-0.000212912
0.0,-0.000445907
0.0,-0.000284254
0.0,-0.000176519
0.0,-0.000297834
0.0,-0.00194434
0.0,-0.000299267
0.0,-0.00059882
0.0,-0.000422221
0.0,-0.000253843
0.0,-0.000345427
0.0,-0.00023609
0.0,-0.000433522
0.0,-0.000467514
0.0,-0.000397974
0.0,-0.000301865
0.0,-0.000216256
0.0,-0.000881016
0.0,-0.000197321
0.0,-0.000195354
0.0,-0.000533963
0.0,-0.00051474
0.0,-0.000236633
0.0,-0.000260479
0.0,-0.000333927
0.0,-0.00046049
0.0,-0.000206559
0.0,-0.000177593
0.0,-0.000731586
0.0,-0.000255268
0.0,-0.000392279
0.0,-0.000600951
0.0,-0.00245872
0.0,-0.000548927
0.0,-0.000366464
0.0,-0.00035474
0.0,-0.000480533
0.0,-0.000258692
0.0,-0.000725225
0.0,-0.000165277
0.0,-0.000297345
0.0,-0.000171954
0.0,-0.00152238
0.0,-0.000473538
0.0,-0.00137634
0.0,-0.000284323
0.0,-0.000288096
0.0,-0.00038873
0.0,-0.000337079
0.0,-0.000710975
0.0,-0.000156747
0.0,-0.000240517
0.0,-0.000476255
0.0025,-0.000477393
0.01,0.0990675
0.01,0.053471
0.01,0.0344267
0.03,0.00249641
0.0347222,0.00183186
0.06,0.00187557
0.06,0.00134848
0.06,0.00221249
0.0694444,0.00164481
0.0833333,0.0138611