File: KFI-RHO-LTA-UFI_paper/dependence_plot_data/KFI_OHSi.csv
OH/Si,SHAP value
0.0,-0.000725379
0.0,-0.00048903
0.0,-0.000388656
0.0,-0.000486693
0.0,-0.000402716
0.0,-0.000313798
0.0,-0.000257074
0.0,-0.00048863
0.0,-0.000975013
0.0,-0.000436619
0.0,-0.000340212
0.0,-0.000316307
0.0,-0.000406776
0.0,-0.000395331
0.0,-0.000352407
0.0,-0.000301088
0.0,-0.000334631
0.0,-0.000335963
0.0,-0.000312547
0.0,-0.000308269
0.0,-0.000420662
0.0,-0.000229744
0.0,-0.00136763
0.0,-0.000397279
0.0,-0.000362408
0.0,-0.000376136
0.0,-0.000328571
0.0,-0.000462003
0.0,-0.00045742
0.0,-0.000430767
0.0,-0.000331625
0.0,-0.000539976
0.0,-0.000526047
0.0,-0.000352924
0.0,-0.000415616
0.0,-0.00285166
0.0,-0.000332796
0.0,-0.000341557
0.0,-0.000536147
0.0,-0.000504977
0.0,-0.000397609
0.0,-0.000194802
0.0,-0.000373088
0.0,-0.00118074
0.0,-0.000368835
0.0,-0.00010792
0.0,-0.000552664
0.0,-0.000404478
0.0,-0.00216246
0.0,-0.000306534
0.0,-0.00039157
0.0,-0.000395851
0.0,-0.000352548
0.0,-0.000522513
0.0,-0.00049325
0.0,-0.000215239
0.0,-0.000367187
0.0,-0.000646862
0.0,-0.000639794
0.0,-0.000197332
0.0,-0.000356914
0.0,-0.000123241
0.0,-0.000398526
0.0,-0.000360931
0.0,-0.000418978
0.0,-0.000341256
0.0,-0.0003256
0.0,-0.000526645
0.0,-0.000512866
0.0,-0.000493423
0.0,-0.000297281
0.0,-0.000192245
0.0,-0.000312021
0.0,-0.000310759
0.0,-0.000446297
0.0,-0.000434034
0.0,-0.000405875
0.0,-0.0008112
0.0,-0.000417209
0.0,-0.000351455
0.0,-0.000629808
0.0,-0.000392347
0.0,-0.000392894
0.0,-0.000252038
0.0,-0.000359365
0.0,-0.000746468
0.0,-0.000396653
0.0,-0.000312311
0.0,-0.000390039
0.0,-0.000401482
0.0,-0.000506165
0.0,-0.000367459
0.0,-0.000431742
0.0,-0.000406066
0.0,-0.000386381
0.0,-0.000462897
0.0,-0.000292991
0.0,-0.000335409
0.0,-0.000331183
0.0,-0.000419275
0.0,-0.000451638
0.0,-0.00149319
0.0,-0.000480709
0.0,-0.000197953
0.0,-0.00396172
0.0,-0.000266949
0.0,-0.00040969
0.0,-0.000242566
0.0,-0.00315327
0.0,-0.000305645
0.0,-0.00031442
0.0,-0.000423594
0.0,-0.000398902
0.0,-0.000329926
0.0,-0.000460946
0.0,-0.000452878
0.0,-0.000485121
0.0,-0.000291227
0.0,-0.000655693
0.0,-0.000466277
0.0,-0.000325476
0.0,-0.000501179
0.0,-0.000492378
0.0,-0.000682329
0.0,-0.000379638
0.0,-0.00382497
0.0,-0.000485121
0.0,3.77778e-05
0.0,-0.000365535
0.0,-0.000643108
0.0,-0.000292439
0.0,-0.000620956
0.0,-0.000346936
0.0,-0.000478468
0.0,-0.00049719
0.0,-0.000312242
0.0,-0.000310284
0.0,-0.000403589
0.0,-0.000345841
0.0,-0.000431656
0.0,-0.000766194
0.0,-0.000332906
0.0,-0.000508168
0.0,-0.00141991
0.0,-0.000484962
0.0,-0.000344178
0.0,-0.000168318
0.0,-0.00142106
0.0,-0.000514712
0.0,-0.000294792
0.0,-0.00171592
0.0,-0.000292991
0.0,-0.000384408
0.0,-0.000403168
0.0,-0.000406984
0.0,-0.000400559
0.0,-0.000389555
0.0,-0.000440735
0.0,-0.000404647
0.0,-0.00035373
0.0,-0.000352182
0.0,-0.000460886
0.0,-0.000483374
0.0,-0.000261339
0.0,-0.000291377
0.0,-0.00029922
0.0,-0.000596892
0.0,-0.000165739
0.0,-0.000337262
0.0,-0.000402209
0.0,-0.000204649
0.0,-0.000346936
0.0,-0.00035048
0.0,-0.000408918
0.0,-0.000329245
0.0,-0.000335337
0.0,-0.000458031
0.0,-0.000263073
0.0,-0.000558894
0.0,-0.000322773
0.0,-0.000444065
0.0,-0.00117222
0.0,-0.000483954
0.0,-0.000668827
0.0,-0.000402016
0.0,-0.000497729
0.0,-0.000408042
0.0,-0.000596408
0.0,-0.00040911
0.0,-0.000427742
0.0,-0.00035672
0.0,-0.000427236
0.0,-0.000218706
0.0,-0.000361168
0.0,-0.000341256
0.0,-0.000471027
0.0,-0.00034012
0.0,-0.000437313
0.0,-0.000361247
0.0,-0.000431179
0.0,-0.000494323
0.0,-0.000162109
0.0,-0.000430763
0.0,-0.000373088
0.0,-0.000713771
0.00181818,-0.000414365
0.00222222,-0.000415174
0.00285714,-0.000420433
0.01,-0.000281937
0.016,0.00144238
0.016,-0.000307891
0.016,-0.000206027
0.016,-0.000273388
0.019375,-0.00401058
0.02,-0.00134339
0.024,-0.000392417
0.024,-0.000292626
0.024,-0.000284013
0.024,-0.000392613
0.024,-0.000358772
0.024,-0.00036701
0.0243333,-0.000353316
0.0297619,-0.000533248
0.0297619,-0.000533248
0.0313,-0.000294594
0.0313,-0.00030835
0.032,-0.000284041
0.036,-0.000577593
0.04,-0.000293864
0.04,-0.000328316
0.04,-0.000291802
0.04,-0.000240654
0.04,-0.000284469
0.04,-0.000279845
0.04,-0.00037816
0.04,-0.000344074
0.04,-0.000327862
0.042,-0.000135947
0.0420875,-0.000558858
0.043,-0.000470413
0.0465574,-0.00374526
0.048,-0.000289731
0.048,5.93836e-05
0.048,-0.000332447
0.048,-0.000301348
0.048,-0.000300638
0.048,-0.000322975
0.048,-0.000315016
0.05,-0.000449808
0.05,-0.00040903
0.0533333,-0.000645002
0.056,-0.000287381
0.056,-0.000279416
0.06,-0.0037341
0.06,-0.00345606
0.06,-0.000301941
0.0606061,-0.000282715
0.064,-0.000455408
0.064,-0.000331649
0.064,-0.000468857
0.064,-0.000299184
0.064,-0.000283713
0.0664,-0.000490395
0.0664,-0.000372844
0.07,-0.00042243
0.07,-0.00036661
0.07,-0.000352288
0.072,-0.000356361
0.072,-0.000358839
0.072,-0.000273296
0.072,-0.000273844
0.0720721,-0.000275537
0.075,-0.00418072
0.075,-0.00506854
0.08,-0.000180914
0.08,-0.000227051
0.08,-0.000418662
0.08,-0.000598507
0.08,-0.000290207
0.08,-0.000334472
0.08,-0.000324976
0.08,-0.000369267
0.08,-0.000342261
0.085,-0.000363231
0.088,-0.000304506
0.088,-0.000248628
0.088,-0.000343378
0.088,-0.000306253
0.088,-0.000308586
0.088,-0.000269937
0.088,-0.00028796
0.088,-0.000254819
0.088,-0.000331544
0.088,-0.000146349
0.088,-0.000283026
0.09,-0.000264189
0.093,-0.000360642
0.0933333,-0.000269125
0.096,-0.000536856
0.096,-0.000239775
0.096,-0.000263209
0.096,-0.000276804
0.096,-0.000237097
0.1,-0.000471476
0.1,-0.000470338
0.1,-0.000246474
0.1,-0.000629103
0.1,-0.000368233
0.1,-0.000470338
0.1,-0.000636977
0.1,-0.000470338
0.1,-0.00042362
0.1,-0.000471476
0.1,-0.000597981
0.104,-0.000234732
0.11039,-0.000178945
0.112,-0.000474787
0.112,-0.000279797
0.112,-0.000267071
0.112,-0.000113514
0.112,-0.000245975
0.117,-0.00047902
0.12,-0.000255665
0.12,-0.000369719
0.12,-0.000286934
0.12,-0.000320973
0.12,-0.000156681
0.12,-0.000377602
0.124,-0.000211597
0.125,-0.000150488
0.128,-0.000245624
0.128,-0.000234046
0.132143,-0.000131015
0.133333,-0.000655042
0.136,-0.000235748
0.142,-0.000240637
0.142857,-0.000230026
0.144,-0.000163724
0.144,-0.000159118
0.144,-0.000196527
0.144,-0.000182829
0.144,-0.000238749
0.144,-0.000309212
0.144,0.000278001
0.144,-0.000246521
0.144,-0.000294451
0.144,-0.000248235
0.144,-0.000249603
0.144,0.000238084
0.144,-0.000212258
0.148,-1.92751e-05
0.15,-0.000196128
0.15,-0.000217865
0.15,-9.7769e-05
0.15,-0.000247636
0.151333,-4.0173e-05
0.151333,1.75414e-05
0.152,-0.000242109
0.153333,-0.000146736
0.15875,-9.93787e-05
0.159091,-6.61507e-05
0.16,-0.000260243
0.16,-0.000115979
0.16,-0.000288308
0.16,-0.000244171
0.16,-0.000234086
0.16,-0.000220635
0.16,-0.000510428
0.16,-0.000685727
0.16,-0.000452135
0.16,-0.00036096
0.16,-0.000192459
0.16,0.000147214
0.16,-0.000285381
0.16,-0.000212386
0.161,-0.00034993
0.166667,-0.000123899
0.166667,-0.000432763
0.166667,-0.000228868
0.166667,-0.000253167
0.17,-0.000157154
0.17,-0.000218204
0.172,-0.000238618
0.172414,-0.000499082
0.173333,-0.000225309
0.176,-0.000140385
0.178,-0.000281324
0.178,-0.000226168
0.178,-0.000226168
0.178,-0.000260809
0.178,-0.000353345
0.178788,-0.000261524
0.18,-0.000247567
0.18,-0.000279382
0.18,-0.000223781
0.18,-0.000162342
0.18,0.000192192
0.18,0.00014335
0.181339,-0.000193969
0.183908,-0.000384785
0.189394,-8.08896e-06
0.189394,-1.37394e-05
0.189394,-1.37394e-05
0.189394,-1.37394e-05
0.1894,-0.000447288
0.19008,0.000151442
0.191667,-0.000580899
0.192,-0.000235878
0.192,0.000505068
0.192,-0.000237976
0.192,-0.000234006
0.2,-0.000184015
0.2,-0.000127922
0.2,-0.0002892
0.2,-5.09849e-05
0.2,-0.000367045
0.2,-8.4642e-05
0.2,-0.00027396
0.2,-0.00027449
0.2,-0.000289501
0.2,-0.000530773
0.2,-0.000295493
0.2,-0.000153093
0.2,-0.000224956
0.2,-0.000277537
0.2,-0.000166605
0.2,-0.000269781
0.2,-0.000134251
0.2,-9.07206e-05
0.2,-0.000285262
0.2,-0.000290505
0.2,-0.000163215
0.2,-0.000275428
0.2,-0.000230048
0.2,-0.000222713
0.2,-0.00011981
0.2,-0.000222173
0.2,-0.000174802
0.2,-0.000116358
0.2,-0.000294814
0.2,-4.43189e-05
0.2,-0.000410791
0.2,-0.000117084
0.2,-2.60042e-05
0.2,-0.000111703
0.2,-0.000216286
0.2,-0.000271511
0.2,-0.000495425
0.2,-7.37654e-05
0.2,-6.12903e-05
0.2,-4.64668e-05
0.2,-0.00026877
0.2,-0.000153595
0.2,-0.000441869
0.2,-2.38655e-05
0.2,-3.23984e-05
0.2,-0.000308286
0.2,-0.000177968
0.2,-0.000382729
0.2,-0.000291629
0.2,-3.42726e-06
0.207,-0.000172329
0.21,-0.000276357
0.213333,-0.000283401
0.215,-7.13419e-06
0.22,-0.000276881
0.22,-0.000111107
0.224,-0.000109698
0.224,-0.000104768
0.228,-0.000434373
0.23,0.000104183
0.237,-0.000172283
0.24,-0.000182399
0.24,-0.000559859
0.24,-8.33898e-05
0.24,2.98219e-05
0.24,-0.000115342
0.24,-0.000113415
0.24,7.8442e-05
0.24,-0.000254708
0.240024,0.00196265
0.244966,-0.000304429
0.244966,-0.000241519
0.244966,-0.000355415
0.244966,-0.000198363
0.244966,-0.000223373
0.244966,-0.000186873
0.244966,-0.000357111
0.244966,-0.000170508
0.245,-8.05955e-05
0.246,-0.000337156
0.248,-0.000186105
0.25,-4.15063e-05
0.25,-0.000114143
0.25,-0.000197538
0.25,0.000139431
0.25,-0.000123317
0.25,-9.01048e-05
0.25,0.000340275
0.256,-0.000684496
0.256,0.000151042
0.256,-9.22834e-05
0.26,-0.000295695
0.26,4.1465e-05
0.26,0.000580086
0.26,-1.23188e-05
0.26,-0.000500466
0.27,-3.13805e-05
0.27,-3.38306e-05
0.28,-0.000168897
0.28,4.22615e-05
0.28,0.000123322
0.28,-0.000118819
0.284394,2.28703e-05
0.286,-0.000305937
0.29,-0.000211634
0.292,0.000107318
0.293231,-0.000616315
0.299963,0.0417579
0.3,-7.36869e-05
0.3,-0.00018559
0.3,-6.95018e-05
0.3,-0.000138869
0.3,-0.000400208
0.3,-0.000400182
0.3,-0.000268848
0.3,-0.000170933
0.3,-0.000407756
0.3,-5.78499e-05
0.3,-0.000173824
0.3,-9.63812e-05
0.3,-0.000396929
0.3,-0.000230054
0.3,-9.63812e-05
0.3,-0.000133866
0.3,-0.000246546
0.3,-5.90724e-05
0.3,-0.000377805
0.3,-0.000293009
0.3,-0.000209935
0.3,-0.00033398
0.3,-0.000304033
0.3,-0.000281442
0.3,-0.00018559
0.3,-0.000431746
0.3,-0.000246546
0.303951,0.000535609
0.31,3.15805e-05
0.311111,-9.52486e-05
0.3125,-0.000374202
0.314,-0.000467821
0.32,-0.000266253
0.32,-0.000213469
0.32,-0.000251283
0.32,-0.000516659
0.32,-0.000321959
0.32,0.000811624
0.32,-0.000300847
0.32,-0.000188664
0.32,-0.00111914
0.32,-0.000266101
0.32,-3.82282e-05
0.323967,-0.00270764
0.324333,-0.000191953
0.324333,-0.000192904
0.327,-0.000190924
0.33,-0.000115688
0.33,-0.000513612
0.33,-0.000116663
0.333333,-0.000401659
0.333333,-0.000396447
0.333333,0.00214083
0.333333,-0.00047933
0.334783,-0.000143835
0.336,-0.00283309
0.336,-0.000222232
0.336,-0.00285354
0.34,-0.000165072
0.34,-0.000179751
0.34,-0.000180748
0.34,-0.000186735
0.34,-0.000182083
0.34,-1.37628e-05
0.34,-0.000165798
0.342,-4.13496e-05
0.35,-0.000111095
0.35,-0.000368765
0.35,-0.000102386
0.351958,-9.13186e-05
0.36,-0.000117189
0.36,-0.000133252
0.36,0.000311461
0.36,-0.000131137
0.36,-0.000130493
0.360036,-9.24372e-05
0.363,-5.35109e-05
0.364286,-0.000344909
0.372,-0.000585389
0.372,-0.000575082
0.372,-0.000319244
0.373333,9.63837e-06
0.381679,6.41943e-05
0.384,-0.00222014
0.384,-0.000172532
0.384,-0.00235613
0.384061,1.59297e-05
0.388,8.61775e-05
0.388,8.86102e-05
0.4,0.00112688
0.4,0.000234339
0.4,0.000241071
0.4,9.2756e-05
0.4,8.29826e-05
0.4,6.71066e-05
0.4,0.000179855
0.4,8.9037e-05
0.4,0.000222191
0.4,-0.000156506
0.4,0.000145609
0.4,0.000385215
0.4,0.000290821
0.4,0.000142949
0.4,0.00019471
0.4,0.000193369
0.4,0.000181505
0.4,0.00012217
0.4,0.000247047
0.4,0.000200306
0.4,8.041e-05
0.4,4.0424e-05
0.4,0.000125385
0.4,0.000729851
0.4,0.000475258
0.4,0.000213093
0.4,0.000113468
0.4,-1.92777e-05
0.4,0.000193627
0.4,6.64976e-05
0.4,0.000460367
0.4,0.000229495
0.4,0.000351535
0.4,0.000972041
0.4,-0.000589382
0.4,0.000287723
0.4,8.86002e-05
0.4,0.000212079
0.4,-2.418e-05
0.4,0.000164432
0.4,0.000333355
0.4,0.000321066
0.412,0.000240221
0.415385,1.10905e-05
0.416,0.000172064
0.418,0.000177953
0.42,0.000303954
0.42,0.000388294
0.42,0.000898112
0.42,0.000223494
0.43,0.000189495
0.432,-0.000221195
0.432,0.000562851
0.439216,6.74349e-05
0.44,0.000397105
0.442,0.000208917
0.448,0.00035314
0.45,0.000367291
0.45,0.000551311
0.45,0.000588518
0.45,0.000418284
0.45,0.000546494
0.45,0.000432242
0.45,0.000409556
0.452632,0.000281572
0.454,0.0601344
0.45625,0.000759016
0.46,0.00127121
0.46,0.0483554
0.462,0.00121257
0.47,0.00113151
0.479904,-0.000479074
0.48,0.00149367
0.48,0.000813922
0.48,0.000606426
0.48,0.0015001
0.48,0.00148363
0.48,0.000219388
0.485437,0.000842079
0.488889,0.00100927
0.488889,0.00100927
0.493298,0.00134868
0.49597,0.000665875
0.49597,0.000652096
0.5,0.000743549
0.5,0.000762214
0.5,0.000625482
0.5,0.00142934
0.5,0.000516696
0.5,0.000917517
0.5,0.000840356
0.5,0.00429624
0.5,0.000592358
0.5,0.000750259
0.5,0.000900315
0.5,0.000897771
0.5,0.00111052
0.5,0.00090309
0.5,0.000750259
0.5,0.000750259
0.5,0.000527515
0.5,0.000980073
0.5,0.00052547
0.5,0.00107329
0.5,0.000618146
0.5,0.000545546
0.50104,0.000617283
0.50152,0.000608094
0.50752,0.000605373
0.507614,0.00112247
0.507614,0.00112247
0.50784,0.00100969
0.511836,-0.000288547
0.512,0.000905701
0.512,0.000780656
0.512,0.00115076
0.515464,0.00112245
0.52,0.000684041
0.52,0.000684089
0.52,0.000779984
0.520833,0.000753088
0.520833,0.00076541
0.528053,0.00150801
0.52872,0.000451173
0.53,0.000908687
0.533333,0.0011742
0.533333,0.000758079
0.533333,0.000876388
0.54,0.000421601
0.54,0.000621537
0.542005,0.000742434
0.542005,0.000743702
0.543848,0.000429993
0.55,0.000579537
0.55,0.000714247
0.551724,0.0010149
0.559832,0.000240029
0.559832,0.000202293
0.56,0.000743315
0.56,0.000807161
0.56,0.000831855
0.571429,0.00076047
0.575,0.0012664
0.575,0.00125269
0.575,0.00105465
0.575,0.00108247
0.58,0.000520527
0.581818,0.000634963
0.587,0.000600199
0.588,0.00114452
0.599747,0.000902612
0.6,0.000441014
0.6,0.000633742
0.6,0.0006366
0.6,0.000633742
0.6,0.000756224
0.6,0.000453033
0.6,0.000741917
0.6,-9.66871e-05
0.6,0.000901131
0.6,0.000940689
0.6,0.00104428
0.6,0.000528658
0.60024,0.00114177
0.60024,0.000960977
0.608041,0.000730916
0.62,0.000194218
0.62,0.000160745
0.62,0.000210631
0.62,0.000309468
0.633,0.000526454
0.633,0.000526454
0.64,0.000498567
0.64,0.000673877
0.64,0.000655073
0.655738,0.000602881
0.663415,0.000271941
0.666667,0.00102741
0.666667,0.00114854
0.67,0.000878008
0.67,0.000799364
0.68359,0.00151135
0.685714,0.000712327
0.69,0.000669491
0.7,0.000748487
0.7,0.000970876
0.7,0.00040424
0.7,0.000978485
0.7,0.000449964
0.707,0.000513452
0.72,0.000399914
0.72,0.00057032
0.723404,0.000656729
0.73,0.000994834
0.736,0.000904828
0.75,0.000490107
0.752381,0.0015305
0.753,0.000502213
0.755556,0.000188166
0.757576,0.000841459
0.757576,0.000909536
0.757576,0.000839236
0.767754,0.0010191
0.8,0.000840125
0.8,0.000871675
0.8,0.00218713
0.8,0.000729661
0.8,0.000818764
0.8,0.00102536
0.8,0.00102536
0.8,0.000491205
0.8,0.00073552
0.8,0.00101239
0.8,0.000825832
0.8,0.000613371
0.8,0.000804755
0.8,0.000877749
0.8,0.000829802
0.8,0.000433638
0.8,0.00073552
0.8,0.000640212
0.8,0.000389749
0.8,0.000444767
0.8,0.000763104
0.8,0.000684499
0.8,0.000418052
0.8,0.000563928
0.81,0.000392233
0.816049,0.000767778
0.816049,0.000767114
0.831601,0.000407494
0.833333,0.000593611
0.867925,0.000598567
0.87037,0.000568367
0.873,0.000490558
0.88,0.00035355
0.88,0.00035355
0.9,0.000452916
0.9,0.000591788
0.913,0.000416419
0.92,0.000462532
0.93,0.000897673
0.93,0.000712368
0.93,0.000712368
0.93,0.000827279
0.95,0.000453625
0.957,0.000484824
0.972222,0.000638626
0.99,0.000452853
0.995,0.00104244
1.0,0.000538409
1.0,0.00103168
1.00115,0.000804116
1.00694,0.00083247
1.00928,0.000805253
1.03333,0.000799945
1.04,0.000470122
1.04,0.000471645
1.05,0.000444411
1.05,0.000444871
1.0625,0.000668731
1.07,0.000721121
1.07,0.000686807
1.073,0.000426467
1.1,0.00241887
1.13942,0.000713737
1.157,0.000491191
1.2,0.00104349
1.22727,-0.000264828
1.25,0.00049301
1.25,0.00065858
1.25,0.000295299
1.3,0.000401592
1.3,0.000231821
1.31,0.000281586
1.425,0.000109454
1.44,0.000656672
1.52,0.00107857
1.52,0.00152587
1.52,0.000882288
1.6,-0.000235325
1.6,0.00143919
1.6,0.000364183
1.6,0.000364183
2,0.000235795
2,0.000289164
2,0.000238197
2.0,0.000209828
2.0,0.000273998
2.0,0.00024687
2.0,0.000212089
2.0,0.000242259
2.0,0.000217506
2.0,0.000273449
2.07059,0.000353863
2.17647,-0.000706074
2.2,0.000536455
2.4024,-5.55602e-05
2.45333,0.000165292
2.48889,-0.000837509
2.8,0.000419151
2.8,0.000418222
3,0.000236993
3.2,0.00043867
3.2,0.000618648
3.2,1.3656e-05
5.0,0.000167013
6.4,-0.00157136
6.4,3.88411e-05
8,0.000370537
8,-0.000749467
8.2,0.0003174
9.63855,-0.00037957
18.0,0.000151764
26.5714,0.000311871
358.4,0.000748987
358.4,0.000642902