File: KFI-RHO-LTA-UFI_paper/dependence_plot_data/KFI_Crystallization temp.csv
Crystallization temp,SHAP value
0.0,0.000121776
0.0,0.000410869
0.0,-6.85862e-05
30.0,-0.000362736
50.0,5.21527e-05
60.0,0.000435848
60.0,0.000219461
65.0,0.000471466
65.0,0.000435928
70.0,0.00409721
80.0,0.000152965
80.0,0.000167525
80.0,0.00148337
80.0,0.000306226
90.0,0.000380833
90.0,0.00194117
90.0,0.000309631
90.0,0.000374501
90.0,-0.000141631
90.0,0.000309631
90.0,0.00677226
90.0,0.000390572
95.0,0.00117557
95.0,0.000349701
100.0,0.000776815
100.0,-0.00499771
100.0,0.00108723
100.0,0.000821926
100.0,0.000296419
100.0,0.00783854
100.0,0.000140989
100.0,0.0834974
100.0,0.000194882
100.0,0.000139275
100.0,-0.000264719
100.0,0.00242959
100.0,-9.90991e-05
100.0,0.000340171
100.0,0.000756794
100.0,0.00109935
100.0,0.000592944
100.0,0.000742352
100.0,0.00115164
100.0,9.5357e-05
100.0,0.000145356
100.0,-0.000252034
100.0,-0.000129837
100.0,0.000187776
100.0,-0.000251443
100.0,0.000101375
100.0,0.000201671
100.0,0.000527431
100.0,0.000200307
100.0,-0.000385498
100.0,0.00022904
100.0,0.000191124
100.0,0.00308615
100.0,0.000775479
100.0,0.000868872
100.0,0.00152629
100.0,0.000526976
100.0,0.053928
100.0,0.000679098
100.0,0.001738
100.0,-0.000385498
100.0,0.000168097
100.0,0.00054132
100.0,0.000317178
100.0,0.000398577
100.0,0.000571872
100.0,0.000145271
100.0,0.00117933
100.0,0.000226767
100.0,0.000555775
100.0,0.000201671
100.0,0.000789311
100.0,0.000423665
100.0,0.000769018
100.0,0.000658624
100.0,0.00108351
100.0,0.000100716
100.0,0.00354199
100.0,0.000275748
100.0,-0.00527276
100.0,0.00088739
100.0,0.000670153
100.0,0.000587909
100.0,0.000201568
100.0,0.000329192
100.0,0.000574995
100.0,-6.68935e-05
100.0,0.00132639
100.0,0.000370459
100.0,0.000158335
100.0,0.000100415
100.0,0.000322781
100.0,0.000939093
100.0,0.000330761
110.0,-0.00383764
110.0,-0.00220724
110.0,-0.00574774
110.0,-0.00484549
110.0,-0.00390272
110.0,-0.00987138
110.0,-0.00388351
110.0,-0.00316522
110.0,0.000106493
110.0,-0.0057251
110.0,0.00098286
110.0,-0.005409
110.0,-0.00444791
110.0,-0.000670006
110.0,-0.00438251
110.0,-0.000323143
110.0,0.000630886
110.304,7.03378e-05
115.0,0.00014555
115.0,9.40331e-05
117.479,-0.00100961
120.0,0.000475395
120.0,0.000311022
120.0,6.45888e-05
120.0,0.000840611
120.0,0.000514
120.0,0.000139048
120.0,2.06012e-05
120.0,0.00054931
120.0,0.000139048
120.0,0.000452407
120.0,6.40877e-06
120.0,-7.95725e-06
120.0,2.86743e-05
120.0,0.000595818
120.0,0.000319207
120.0,-0.000174387
120.0,-5.48471e-06
120.783,0.000187628
125.0,-0.00200534
125.0,0.000237143
125.0,0.000413362
125.0,0.000163514
125.0,-3.24526e-05
125.0,0.000350067
125.0,0.000198432
125.0,0.000224661
125.0,0.000112927
130.0,0.000471481
130.0,0.000482421
130.0,0.000284671
130.0,0.000308973
130.0,0.000759971
130.0,0.000540309
130.0,0.000407045
130.0,0.000518395
135.0,0.000761707
135.0,0.000629386
135.0,0.000450339
135.0,0.000299069
135.0,0.000397004
135.0,0.000505142
135.0,0.000447014
135.0,0.000414566
135.0,0.000311203
135.0,0.000770489
135.0,0.000392057
135.0,0.000554105
135.0,0.000430057
135.0,0.000492359
135.0,0.000316736
135.0,0.000416114
135.0,0.000338243
135.0,0.000398914
135.0,0.000393756
135.0,0.000421282
135.0,0.000467353
135.0,0.000439321
135.0,0.000329954
135.0,0.000444652
135.0,0.000429925
135.0,0.000372658
135.0,0.000329386
136.483,0.000204857
138.0,0.000310193
140.0,0.000335011
140.0,0.000323813
140.0,0.0008247
140.0,0.000248468
140.0,0.000357404
140.0,0.000212417
140.0,0.000415435
140.0,0.000333985
140.0,0.000293861
140.0,0.000334884
140.0,0.000242516
140.0,0.000258741
140.0,0.00020603
140.0,0.000209444
140.0,0.000323813
140.0,0.000267081
140.0,0.000328035
140.0,0.000479809
140.0,0.000237067
140.0,0.000217181
140.0,0.000552445
140.0,0.000219319
140.0,0.000365561
140.0,0.000320853
140.0,0.000173688
140.0,0.000279206
140.0,0.000173688
140.0,0.000277908
140.0,0.000572586
140.0,0.000248868
140.0,0.000282867
140.0,0.000335011
140.0,0.000327162
140.0,0.000324294
140.0,0.000345624
140.0,0.000175384
140.0,0.000169386
140.0,0.000358425
140.0,0.000488245
140.0,0.000268406
140.0,0.000558713
140.0,0.000255034
140.0,0.000328035
140.0,0.00032831
140.0,0.000724736
140.0,0.000436903
140.0,0.000260715
140.0,0.000490419
140.0,0.000482526
140.0,0.000565411
140.0,0.000482614
140.0,0.000445811
140.0,0.000516801
140.0,0.00265373
140.0,0.000165604
140.0,0.000407521
140.0,0.000335011
140.0,0.000350077
140.0,0.000359096
140.0,0.000715747
140.0,0.00021567
140.0,0.000431254
142.5,0.000596898
142.5,0.00032904
142.5,0.000586672
142.5,0.000513371
142.853,0.000830993
145.0,0.000596437
145.0,0.000591945
145.0,0.000558598
145.0,0.000583638
145.0,0.000389412
145.734,0.000413538
150.0,0.000416703
150.0,0.000647222
150.0,0.000459899
150.0,0.000430729
150.0,0.000388356
150.0,0.000577922
150.0,0.000395661
150.0,0.000229931
150.0,0.000515272
150.0,0.000442368
150.0,0.000527206
150.0,0.000374034
150.0,0.000556949
150.0,0.000407801
150.0,0.000841524
150.0,0.000221019
150.0,0.00106211
150.0,0.000379349
150.0,0.000343441
150.0,0.000654569
150.0,0.000670359
150.0,0.000519948
150.0,0.000900922
150.0,0.000464059
150.0,0.000492015
150.0,0.000540674
150.0,0.000452396
150.0,0.000228953
150.0,0.0583268
150.0,-0.000242687
150.0,0.000521887
150.0,0.000782035
150.0,0.000200678
150.0,0.000385447
150.0,0.00058398
150.0,0.000364862
150.0,0.00566209
150.0,0.000361673
150.0,0.00234511
150.0,0.000426757
150.0,0.000292837
150.0,0.000273961
150.0,0.000937774
150.0,0.000354837
150.0,0.000705347
150.0,0.000408973
150.0,0.000516794
150.0,0.000280048
150.0,-0.000254051
150.0,0.000234409
150.0,0.018132
150.0,0.000533258
150.0,0.000333836
150.0,0.000520204
150.0,0.000353583
150.0,0.000297197
150.0,0.00166589
150.0,0.000476869
150.0,0.000192039
150.0,0.000261857
150.0,0.000235139
150.0,0.000464547
150.0,0.000393575
150.0,0.000924356
150.0,0.000414238
150.0,0.000346832
150.0,0.000334082
150.0,0.000391735
150.0,0.000465544
150.0,0.0010514
150.0,0.000342865
150.0,0.00047967
150.0,0.000595
150.0,0.000452659
150.0,0.000437267
150.0,0.000499115
150.0,0.000376021
150.0,0.000397775
150.0,0.000370412
150.0,0.000346142
150.0,0.000446136
150.0,0.000696895
150.0,0.000414238
150.0,0.000544742
150.0,0.000601428
150.0,-0.00101332
150.0,-0.00258293
150.0,0.000397775
150.0,0.000339134
150.0,0.000703334
150.0,0.000327987
150.0,0.000778119
150.0,0.000710982
150.0,0.000394415
150.0,0.00048757
150.0,0.000467681
150.0,0.000330848
150.0,0.000346142
150.0,0.000738018
150.0,0.000427948
150.0,0.00235593
150.0,0.000370781
150.0,0.000308412
150.0,0.000412443
150.0,0.000398268
150.0,0.000634498
150.0,0.000274489
150.0,0.00041073
150.0,0.000258343
150.0,0.000418114
150.0,0.000917875
150.0,0.000465948
150.0,0.00043074
150.0,0.00360123
150.0,-0.00050237
150.0,0.000466444
150.0,0.00027696
150.0,0.000785628
150.0,0.000562096
150.0,0.00555093
150.0,0.000342279
150.0,0.00015611
150.0,0.000334239
150.0,-0.000701635
150.0,0.000351969
150.0,0.00038952
150.0,0.000334239
150.0,0.000384648
150.0,0.000253487
150.0,0.000195979
150.0,0.000853554
150.0,0.000154721
150.0,0.00015177
150.0,0.000446806
150.0,0.000392035
150.0,0.000645608
150.0,0.000944177
150.0,0.000518747
150.0,0.000335693
150.0,0.000358933
155.0,0.00047845
155.0,0.000384422
155.0,0.000350034
158.0,0.000198033
159.854,0.000127499
160.0,0.000414651
160.0,-2.25528e-05
160.0,0.000488948
160.0,0.000231292
160.0,0.000675396
160.0,0.000159759
160.0,0.000124684
160.0,0.000230877
160.0,-0.000160738
160.0,0.000115793
160.0,0.000714156
160.0,0.000186539
160.0,5.34776e-05
160.0,0.000255256
160.0,0.000196672
160.0,0.000292418
160.0,0.000124444
160.0,-0.000130721
160.0,0.00063614
160.0,0.000190574
160.0,0.000181044
160.0,0.000256578
160.0,0.000535926
160.0,0.00137573
160.0,0.000707587
160.0,0.000216262
160.0,0.000201839
160.0,0.000171414
160.0,0.000295116
160.0,0.000544942
160.0,-0.00121677
160.0,-0.00178056
160.0,0.000780229
160.0,-2.95693e-05
160.0,0.000180096
160.0,6.95129e-05
160.0,0.000533443
160.0,6.92363e-05
160.0,0.0003637
160.0,0.000485755
160.0,0.000589087
160.0,0.000250539
160.0,0.000299193
160.0,9.72118e-05
160.0,0.000391652
160.0,0.00104695
160.0,0.000293057
160.0,0.000697084
160.0,0.000294267
160.0,0.000590427
160.0,-6.62322e-06
160.0,0.000335868
160.0,0.00051249
160.0,0.000426143
160.0,0.000140711
160.0,-0.000172112
160.0,0.000530544
160.0,0.000294267
160.0,0.000103696
160.0,0.000238889
160.0,0.000309379
160.0,0.000277014
160.0,0.000140555
160.0,0.000131319
160.0,0.00030464
160.0,0.000297543
160.0,-0.000182443
160.0,0.00115278
160.0,-0.000109682
160.0,-5.2125e-05
160.0,0.000293057
160.0,0.0002627
160.0,0.000353668
160.0,-0.00269424
160.0,0.000742226
160.0,0.000315972
160.0,0.000208379
160.0,0.000180428
160.0,0.000265839
160.0,0.000560982
160.0,0.000430184
160.0,-0.00121677
160.0,0.000292418
160.0,-5.57081e-05
160.0,0.000445909
160.0,7.94848e-05
160.0,-0.000178161
160.0,0.000107469
160.0,0.000155072
160.0,0.000590933
160.0,0.000626892
160.0,0.000432639
160.0,0.000881077
160.0,0.000464345
160.0,0.00013099
160.0,0.000463091
160.0,0.000214276
160.0,-0.000154983
160.0,0.000115912
160.0,0.000240462
160.0,9.72118e-05
160.0,0.000451855
160.0,0.000316196
160.0,0.000405512
160.0,0.000288684
160.0,0.000178329
160.0,0.000162546
160.0,0.000458361
160.0,0.000127702
160.0,0.000297853
160.0,-3.28619e-06
160.0,0.000196355
160.0,0.000780815
160.0,0.000213347
160.0,-0.000117694
160.0,0.000331997
160.0,0.00011162
160.0,0.000120161
160.0,0.000347053
160.0,0.000199968
160.0,8.50117e-05
160.0,8.91717e-05
160.0,0.000333517
160.0,0.000127715
160.0,0.000473396
160.0,-5.2125e-05
160.0,0.000294267
160.0,0.000123215
160.0,0.000562525
160.0,0.000210196
160.0,8.84886e-05
160.0,0.000920342
160.0,0.000122577
160.0,0.000483215
160.0,0.00018409
160.0,8.11129e-05
160.0,0.000375739
160.0,0.000300045
160.0,0.000294484
160.0,0.000214036
160.0,-2.50646e-05
160.0,0.000155726
160.0,6.17358e-05
160.0,0.000332267
160.0,0.000294267
160.0,0.000124414
160.0,0.000125947
160.0,0.000210788
160.0,0.000124624
160.0,3.60197e-05
160.0,0.000144608
160.0,0.000285269
160.0,0.000281905
160.0,0.000563255
160.0,0.000169219
160.0,0.000117796
160.0,0.000386593
160.0,0.00102094
160.0,0.000320645
160.0,0.000117462
160.0,0.000104462
160.0,0.000565719
160.0,0.000138385
160.0,7.09233e-05
160.0,0.000477151
160.0,-0.000140831
160.0,9.30543e-05
160.0,0.000217802
160.0,0.00016704
160.0,0.000354302
160.0,0.000120013
160.0,0.00022886
160.0,0.000169703
160.0,0.000275839
160.0,0.00035416
160.0,0.000167529
160.0,0.000535502
160.0,0.000422948
160.0,0.000207116
160.0,3.25214e-05
160.0,0.000318045
160.0,0.000415042
160.0,4.67177e-05
160.0,0.000256578
160.0,0.000525193
160.0,0.000343035
160.0,5.53969e-05
160.0,0.000391886
160.0,0.000681381
160.0,0.000416105
160.0,0.000182734
160.0,0.00035542
160.0,0.00028425
160.0,0.000463943
160.0,0.000333751
160.0,0.000334437
160.0,7.8038e-05
160.0,0.000158698
160.0,-0.000178161
160.0,0.000190839
160.0,0.000427867
160.0,0.000231716
160.0,0.000291219
160.0,0.000201331
160.0,0.000174924
160.0,-0.000140831
160.0,0.000174048
160.0,0.000185693
160.0,0.000625031
160.0,0.000270845
160.0,0.000463656
160.0,0.000301038
160.0,0.0002265
160.0,0.000164512
160.0,0.00023548
160.0,-2.30195e-05
160.0,0.000190978
160.0,6.29561e-05
160.0,0.000199834
160.0,0.000231403
160.0,0.000114298
160.0,0.000415892
160.0,0.00025324
160.0,0.000264303
160.0,-0.00169809
160.0,0.000333143
160.0,0.000333517
161.056,0.000220461
165.0,-0.000264411
165.0,0.000332109
165.0,0.000491355
165.0,4.40451e-05
165.0,6.81533e-05
165.0,0.000260325
165.762,0.000165962
167.0,9.29609e-05
170.0,0.000331806
170.0,0.000213
170.0,4.61323e-05
170.0,8.48972e-05
170.0,7.36196e-06
170.0,0.000437
170.0,4.3768e-05
170.0,8.41885e-05
170.0,-0.000194548
170.0,0.00017286
170.0,-9.36286e-05
170.0,3.06862e-05
170.0,-7.12027e-05
170.0,0.000218581
170.0,3.4186e-05
170.0,-0.000212818
170.0,0.000231162
170.0,-1.89199e-05
170.0,0.000129939
170.0,9.92345e-05
170.0,0.000111341
170.0,-0.000129335
170.0,3.78664e-05
170.0,-0.000507288
170.0,0.000109865
170.0,0.000213
170.0,0.00012902
170.0,0.000219441
170.0,-0.000104385
170.0,0.000431995
170.0,-0.000153246
170.0,-9.61011e-05
170.0,0.000196878
170.0,4.73748e-07
170.0,-1.78955e-05
170.0,-9.49176e-05
170.0,-4.42368e-05
170.0,0.000155664
170.0,0.000224516
170.0,5.17692e-05
170.0,0.000365774
170.0,-0.00282929
170.0,4.62493e-05
170.0,0.000216771
170.0,0.000103302
170.0,0.000196236
170.0,2.17626e-05
170.0,0.000104908
170.0,0.000454541
170.0,0.000110524
170.0,7.12109e-05
170.0,0.000452524
170.0,0.000387745
170.0,-2.40045e-05
170.0,-0.000264489
170.0,-0.000162591
170.0,0.000216326
170.0,0.000240502
170.0,0.000211843
170.0,-5.65371e-05
170.0,0.0003406
170.0,0.000191852
170.0,-3.28772e-05
170.0,-0.000672863
170.0,-3.79218e-05
170.0,0.00040466
170.0,-0.000687291
170.0,-0.000200948
170.0,-0.000354457
170.0,6.23397e-05
170.0,-0.000510726
170.0,0.00040585
170.0,-0.000488598
170.0,0.00037799
170.0,7.08039e-05
170.0,0.000206755
170.0,5.26837e-05
170.0,0.000133626
170.0,0.000382138
170.0,7.74967e-05
170.0,0.000459814
170.0,1.23517e-05
170.0,3.93701e-05
170.0,0.000178402
170.0,4.16205e-05
170.0,9.23769e-05
174.0,-0.00201751
175.0,-0.000155164
175.0,8.07794e-05
175.0,-0.000408209
175.0,-8.12732e-05
175.0,5.04482e-05
175.0,0.000332653
175.0,7.78784e-06
175.0,-0.000142807
175.0,0.000158781
175.0,0.000125432
175.0,0.000325821
175.0,-0.000406988
175.0,0.000324568
175.0,0.000319972
175.0,0.000194346
175.0,0.000567
175.0,-5.27386e-06
175.0,7.38346e-05
175.0,0.00013488
175.0,-0.00027349
175.0,6.82059e-05
175.0,2.38487e-05
175.0,7.82279e-05
175.0,7.85284e-05
175.0,0.000250493
175.0,0.000116445
175.0,0.000128637
175.0,-0.000125858
175.0,0.000135633
175.0,2.01733e-05
175.0,0.000116463
175.0,0.000195867
175.0,8.91134e-05
175.0,0.000110318
175.0,0.000218248
175.0,0.000164369
175.0,0.000141385
175.0,0.000430528
175.0,9.36553e-05
175.0,3.06657e-05
175.0,0.000283043
175.0,9.11077e-05
175.0,5.53234e-05
175.0,8.48134e-05
175.0,7.41904e-05
175.0,3.68307e-05
175.0,0.000145042
175.0,-3.12196e-06
175.0,4.16119e-05
175.0,-0.000925477
175.0,0.000163617
175.0,0.000101421
175.0,0.000120786
175.0,0.000304523
175.0,-0.000125858
175.0,3.19954e-05
175.0,8.22059e-06
175.0,0.000230009
175.0,0.000112186
175.0,-0.000725312
175.0,0.000110579
175.0,8.70894e-05
175.0,3.44521e-05
175.0,0.000110618
175.0,0.000129023
175.0,9.96339e-05
175.0,9.0614e-05
175.0,0.000128688
175.0,7.78027e-05
175.0,0.000108966
175.0,4.9449e-05
175.0,0.000114959
175.0,0.000305875
175.0,-5.41109e-05
175.0,0.000120917
175.0,2.82735e-06
175.0,0.000164743
175.0,4.15342e-05
175.0,7.81781e-05
175.0,-3.69358e-07
175.0,-2.56076e-05
175.0,2.12102e-05
175.0,-0.000408209
175.0,0.000110439
175.0,7.88266e-05
175.0,9.51852e-05
175.0,-0.000204606
175.0,2.72512e-05
175.0,8.65011e-05
175.0,0.000687343
175.0,5.16217e-05
175.0,9.01801e-05
175.0,9.85842e-05
175.0,0.000148055
175.0,-7.5035e-05
175.0,0.000123481
175.0,0.000304387
175.0,0.000251989
175.0,-5.63706e-05
175.0,7.32758e-05
175.0,4.61503e-05
175.0,0.000122291
175.0,0.000142791
175.0,0.000164161
175.0,5.93462e-05
175.0,-6.60974e-05
175.0,8.11783e-06
175.0,0.0001121
175.0,-0.000155164
175.0,-0.000119058
175.0,-0.000774682
175.0,0.000256275
175.0,0.0004401
175.0,-1.32353e-05
175.0,5.63749e-05
175.0,7.41491e-05
175.0,8.76504e-05
175.0,0.000164213
175.0,0.000127659
175.0,0.000113001
175.0,-0.000214803
175.0,0.000161999
175.0,0.000115725
175.0,0.000196823
175.0,1.01952e-05
175.0,1.07054e-05
175.0,1.00865e-05
175.0,-0.000448951
175.663,-0.00132866
178.0,7.56535e-05
180.0,-4.87756e-05
180.0,0.000189795
180.0,0.000151019
180.0,3.25069e-06
180.0,0.000263639
180.0,6.80202e-05
180.0,-0.000897895
180.0,-0.000461748
180.0,0.000165668
180.0,3.25069e-06
180.0,0.000211422
180.0,-0.0011665
180.0,0.000263639
180.0,0.00014992
180.0,2.78481e-05
180.0,0.000173565
180.0,-0.00172871
180.0,-0.00170396
180.0,2.67696e-05
180.0,-0.000148152
180.0,-0.000829724
180.0,0.00011569
180.0,-0.00110052
180.0,-0.00142083
180.0,-5.20914e-05
180.0,1.14058e-05
180.0,0.000255334
180.0,-0.000105822
180.0,4.21572e-05
180.0,-0.000118111
180.0,-0.00147627
180.0,-0.00142083
180.0,-8.01202e-05
180.0,2.98858e-05
180.0,-0.00195093
180.0,0.000109041
180.0,0.000144252
180.0,0.00020771
180.0,0.000264123
180.0,-2.22785e-05
180.0,-0.000461748
180.0,0.000118439
180.0,-0.000290998
180.0,-4.27186e-05
180.0,8.76753e-05
180.0,0.000181951
180.0,0.000156296
180.0,9.88289e-05
187.0,-0.00415653
190.0,-9.99113e-06
190.0,-0.00010661
190.0,-1.61244e-05
190.0,-0.000112091
190.0,-7.39284e-07
190.0,-9.99113e-06
190.0,-1.39541e-05
190.0,-4.51385e-05
200.0,-1.85263e-06
200.0,-9.18669e-06
200.0,-0.000305353
200.0,-0.000260581
200.0,-9.58459e-05
200.0,-0.000272231
200.0,-2.0349e-05
210.0,0.000128839
210.0,0.00024252
210.0,9.5972e-05
220.0,-0.000348586
300.0,0.000182676
450.0,0.00015063
500.0,-0.000167328