File: KFI-RHO-LTA-UFI_paper/dependence_plot_data/LTA_Crystallization temp.csv
Crystallization temp,SHAP value
0.0,0.00712492
0.0,0.0101832
0.0,0.0038404
30.0,0.00679122
50.0,0.00787271
60.0,0.00730323
60.0,0.00755253
65.0,0.0104758
65.0,0.00685114
70.0,0.00432902
80.0,0.14039
80.0,0.0575318
80.0,0.0684319
80.0,0.0222514
90.0,0.0219415
90.0,0.0147222
90.0,0.00464513
90.0,0.0219133
90.0,0.00520029
90.0,0.00464513
90.0,0.0434446
90.0,0.0220614
95.0,0.0114901
95.0,0.00834151
100.0,0.0044792
100.0,0.00475627
100.0,0.0029374
100.0,0.0401988
100.0,0.00555203
100.0,0.00400861
100.0,0.0033277
100.0,0.00334774
100.0,0.00626758
100.0,0.0039778
100.0,0.00418051
100.0,0.00413093
100.0,0.00639273
100.0,0.0131331
100.0,0.00486248
100.0,0.00412412
100.0,0.0124245
100.0,0.00780042
100.0,0.00400948
100.0,0.0368264
100.0,0.120805
100.0,0.00611597
100.0,0.00236838
100.0,0.0708197
100.0,0.00784118
100.0,0.00358929
100.0,0.00700232
100.0,0.0163094
100.0,0.00616395
100.0,0.0055928
100.0,0.00662846
100.0,0.120174
100.0,0.0043805
100.0,0.00433273
100.0,0.011231
100.0,0.00590944
100.0,0.0641282
100.0,0.00333599
100.0,0.0506365
100.0,0.00398007
100.0,0.0055928
100.0,0.0113725
100.0,0.0116835
100.0,0.012712
100.0,0.00574108
100.0,0.00322088
100.0,0.00518037
100.0,0.00395033
100.0,0.00664908
100.0,0.015246
100.0,0.00700232
100.0,0.00763025
100.0,0.00748186
100.0,0.00467289
100.0,0.00946548
100.0,0.00312262
100.0,0.00360224
100.0,0.00532294
100.0,0.00660313
100.0,0.00472447
100.0,0.00856223
100.0,0.00409126
100.0,0.0123277
100.0,0.0204854
100.0,0.0108393
100.0,0.00778026
100.0,0.00505222
100.0,0.00428044
100.0,0.011569
100.0,0.0200446
100.0,0.00389105
100.0,0.0126609
100.0,0.00408343
100.0,0.0563459
110.0,0.00351356
110.0,0.00460309
110.0,0.0042943
110.0,0.00429625
110.0,0.00358478
110.0,0.00434059
110.0,0.00360281
110.0,0.00354723
110.0,0.00375502
110.0,0.0042811
110.0,0.0024575
110.0,0.00407354
110.0,0.00363366
110.0,0.00538316
110.0,0.00345304
110.0,0.00540309
110.0,0.00409388
110.304,0.00554608
115.0,0.00292693
115.0,0.00275401
117.479,0.00310433
120.0,-0.00339753
120.0,0.000544689
120.0,8.7307e-05
120.0,0.000790018
120.0,0.000809317
120.0,0.000807455
120.0,0.00153213
120.0,3.52123e-05
120.0,0.000807455
120.0,-0.00244826
120.0,0.000205273
120.0,0.00455461
120.0,0.00162977
120.0,0.000327254
120.0,0.00122455
120.0,0.00283339
120.0,0.00463921
120.783,0.00306143
125.0,0.00119873
125.0,0.00119595
125.0,-0.00147199
125.0,0.00071069
125.0,0.00114323
125.0,0.0014344
125.0,0.00169448
125.0,0.00134898
125.0,0.00179821
130.0,0.000605431
130.0,0.00107698
130.0,0.00193251
130.0,0.000809627
130.0,0.00217127
130.0,-0.00460916
130.0,-0.000828807
130.0,-0.00204621
135.0,2.17375e-05
135.0,8.48654e-05
135.0,-0.000194426
135.0,-0.00162448
135.0,-0.000111407
135.0,0.000850876
135.0,0.000718622
135.0,-0.000799972
135.0,-0.000516393
135.0,6.11217e-05
135.0,0.000185836
135.0,-0.000282743
135.0,-0.00011931
135.0,8.77769e-05
135.0,-0.00520597
135.0,-0.000458499
135.0,-3.35267e-05
135.0,-0.00011406
135.0,7.24785e-05
135.0,-0.000463676
135.0,-0.000856785
135.0,-0.000135196
135.0,-0.000534877
135.0,-0.000202208
135.0,0.000732773
135.0,-0.000176354
135.0,-0.000522806
136.483,-0.00140191
138.0,-0.00158362
140.0,-0.00104941
140.0,-0.00058618
140.0,-0.00164978
140.0,-0.00112787
140.0,-0.00238641
140.0,-0.00204157
140.0,-0.000883647
140.0,-0.000737499
140.0,-0.00113847
140.0,-0.000992915
140.0,-0.00141461
140.0,-0.00220675
140.0,-0.00182788
140.0,-0.000851276
140.0,-0.00058618
140.0,-0.00248399
140.0,-0.00154009
140.0,-0.00287304
140.0,-0.00063822
140.0,-0.00170653
140.0,-0.000483089
140.0,-0.00261987
140.0,-0.00475717
140.0,-0.0018704
140.0,-0.00304217
140.0,-0.00277201
140.0,-0.00304217
140.0,-0.00276023
140.0,-0.000491933
140.0,-0.0024634
140.0,-0.00152788
140.0,-0.00104915
140.0,-0.00215645
140.0,-0.0015383
140.0,-0.00153399
140.0,-0.00304445
140.0,-0.00250259
140.0,-0.00143225
140.0,-0.00066308
140.0,-0.0026877
140.0,-0.000496332
140.0,-0.00365405
140.0,-0.00154009
140.0,-0.000350222
140.0,-0.00665497
140.0,-0.00494323
140.0,-0.00326482
140.0,-0.00435067
140.0,-0.00102943
140.0,-0.000628074
140.0,-0.00429132
140.0,-0.00370465
140.0,-0.00317818
140.0,-0.00113387
140.0,-0.00144063
140.0,-0.00455262
140.0,-0.00104915
140.0,-0.000758322
140.0,-0.00136902
140.0,-0.000372088
140.0,-0.00402552
140.0,-0.00179831
142.5,-0.00270648
142.5,-0.00194639
142.5,-0.00228044
142.5,-0.00211794
142.853,-0.00270259
145.0,-0.0126768
145.0,-0.00621688
145.0,-0.010333
145.0,-0.00265036
145.0,-0.00245669
145.734,-0.00146268
150.0,-0.00613026
150.0,-0.00141455
150.0,-0.00124653
150.0,-0.00190003
150.0,-0.00329564
150.0,-0.00238579
150.0,-0.00184795
150.0,-0.00255647
150.0,-0.00129366
150.0,-0.00252935
150.0,-0.00151563
150.0,-0.00335305
150.0,-0.00143589
150.0,-0.00132142
150.0,-0.00443955
150.0,-0.00354804
150.0,-0.00240035
150.0,-0.00417015
150.0,-0.00312984
150.0,-0.00275196
150.0,-0.00177801
150.0,-0.00189025
150.0,-0.00790206
150.0,-0.00204521
150.0,-0.00181758
150.0,-0.00291973
150.0,-0.00155825
150.0,-0.00246643
150.0,-0.00118229
150.0,-0.0017876
150.0,-0.00366225
150.0,-0.00121309
150.0,-0.0028909
150.0,-0.00294212
150.0,-0.00278564
150.0,-0.00211264
150.0,-0.00392837
150.0,-0.00421843
150.0,-0.00149366
150.0,-0.00179899
150.0,-0.00224848
150.0,-0.00443699
150.0,-0.00126953
150.0,-0.00231325
150.0,-0.00141228
150.0,-0.00161961
150.0,-0.00147839
150.0,-0.00203148
150.0,-0.00196804
150.0,-0.00164228
150.0,-0.00170427
150.0,-0.00586842
150.0,-0.00345931
150.0,-0.00199228
150.0,-0.00212011
150.0,-0.00369575
150.0,-0.00391135
150.0,-0.0123048
150.0,-0.00354214
150.0,-0.00185131
150.0,-0.00176451
150.0,-0.00242067
150.0,-0.00366546
150.0,-0.00238816
150.0,-0.00145905
150.0,-0.00298154
150.0,-0.00128904
150.0,-0.00264046
150.0,-0.00170878
150.0,-0.00160388
150.0,-0.00285239
150.0,-0.00183968
150.0,-0.00207961
150.0,-0.00179147
150.0,-0.00664524
150.0,-0.00151838
150.0,-0.00292041
150.0,-0.00140446
150.0,-0.00135041
150.0,-0.00288842
150.0,-0.00291523
150.0,-0.00138817
150.0,-0.00147708
150.0,-0.00191286
150.0,-0.00290711
150.0,-0.00173916
150.0,-0.00192613
150.0,-0.00140446
150.0,-0.00304751
150.0,-0.00129472
150.0,-0.00267441
150.0,-0.00566017
150.0,-0.00122936
150.0,-0.00153063
150.0,-0.00142926
150.0,-0.00704721
150.0,-0.00185179
150.0,-0.00288842
150.0,-0.00197904
150.0,-0.00305292
150.0,-0.00150352
150.0,-0.00224676
150.0,-0.00493447
150.0,-0.0015155
150.0,-0.00231007
150.0,-0.00296843
150.0,-0.00174316
150.0,-0.00198771
150.0,-0.00185336
150.0,-0.00333712
150.0,-0.00298083
150.0,-0.00196244
150.0,-0.00183968
150.0,-0.00221979
150.0,-0.00589947
150.0,-0.00245459
150.0,-0.00226789
150.0,-0.00210276
150.0,-0.00959266
150.0,-0.00422881
150.0,-0.00198789
150.0,-0.0020009
150.0,-0.00324287
150.0,-0.00283594
150.0,-0.00357947
150.0,-0.00293923
150.0,-0.00324287
150.0,-0.0031532
150.0,-0.00863656
150.0,-0.00126219
150.0,-0.00758161
150.0,-0.00195419
150.0,-0.00196972
150.0,-0.00323794
150.0,-0.00152958
150.0,-0.00149359
150.0,-0.00753978
150.0,-0.00179903
150.0,-0.00291908
150.0,-0.00282201
155.0,-0.00160087
155.0,-0.00342868
155.0,-0.00169841
158.0,-0.00634929
159.854,-0.00349902
160.0,-0.00475879
160.0,-0.0024534
160.0,-0.00170582
160.0,-0.00257095
160.0,-0.00158015
160.0,-0.00304635
160.0,-0.00166023
160.0,-0.00401269
160.0,-0.00267288
160.0,-0.0036202
160.0,-0.00152211
160.0,-0.00153081
160.0,-0.00621371
160.0,-0.00561846
160.0,-0.00251222
160.0,-0.00205793
160.0,-0.00374593
160.0,-0.00353088
160.0,-0.00211489
160.0,-0.0021829
160.0,-0.00214395
160.0,-0.00156035
160.0,-0.00147906
160.0,-0.00151449
160.0,-0.00195068
160.0,-0.0036906
160.0,-0.00134748
160.0,-0.00169003
160.0,-0.0016205
160.0,-0.00126115
160.0,-0.00238637
160.0,-0.00215562
160.0,-0.00128361
160.0,-0.00367555
160.0,-0.00304541
160.0,-0.00279911
160.0,-0.00138916
160.0,-0.00272257
160.0,-0.00153797
160.0,-0.00179357
160.0,-0.00249781
160.0,-0.00342756
160.0,-0.00128091
160.0,-0.00449688
160.0,-0.0020846
160.0,-0.00229597
160.0,-0.00217519
160.0,-0.00145888
160.0,-0.00135035
160.0,-0.00120072
160.0,-0.00154693
160.0,-0.0019192
160.0,-0.00159766
160.0,-0.00139902
160.0,-0.00373834
160.0,-0.00243167
160.0,-0.00138393
160.0,-0.00135035
160.0,-0.00263724
160.0,-0.00242223
160.0,-0.00493651
160.0,-0.00150978
160.0,-0.00527047
160.0,-0.00403347
160.0,-0.0019974
160.0,-0.00187306
160.0,-0.00256448
160.0,-0.00175621
160.0,-0.00302234
160.0,-0.00139546
160.0,-0.00217519
160.0,-0.003239
160.0,-0.00743998
160.0,-0.00182623
160.0,-0.00132124
160.0,-0.00163503
160.0,-0.00250246
160.0,-0.0024833
160.0,-0.00231775
160.0,-0.00196603
160.0,-0.00165675
160.0,-0.00238637
160.0,-0.00205793
160.0,-0.00140955
160.0,-0.00195292
160.0,-0.0014819
160.0,-0.00234588
160.0,-0.00166189
160.0,-0.00283871
160.0,-0.00120549
160.0,-0.00242313
160.0,-0.00192871
160.0,-0.00167695
160.0,-0.00195293
160.0,-0.00274239
160.0,-0.00120556
160.0,-0.00135569
160.0,-0.00204416
160.0,-0.0036121
160.0,-0.0037916
160.0,-0.0044707
160.0,-0.00126744
160.0,-0.00273398
160.0,-0.00162374
160.0,-0.00204435
160.0,-0.00255413
160.0,-0.00119138
160.0,-0.00201173
160.0,-0.00284587
160.0,-0.00184512
160.0,-0.00231354
160.0,-0.00387676
160.0,-0.00146994
160.0,-0.00340372
160.0,-0.00291377
160.0,-0.00183044
160.0,-0.00299467
160.0,-0.00322479
160.0,-0.0018226
160.0,-0.00219376
160.0,-0.00305385
160.0,-0.00368465
160.0,-0.00176716
160.0,-0.00253406
160.0,-0.0014575
160.0,-0.00139546
160.0,-0.00135035
160.0,-0.00321983
160.0,-0.00134004
160.0,-0.00243775
160.0,-0.00625279
160.0,-0.00136512
160.0,-0.00335185
160.0,-0.00208335
160.0,-0.00294415
160.0,-0.00163354
160.0,-0.00150525
160.0,-0.00188448
160.0,-0.00161344
160.0,-0.00351619
160.0,-0.00214286
160.0,-0.00283951
160.0,-0.00257486
160.0,-0.00181199
160.0,-0.00135035
160.0,-0.0047936
160.0,-0.0014594
160.0,-0.00331402
160.0,-0.0026707
160.0,-0.00157203
160.0,-0.00230809
160.0,-0.00225214
160.0,-0.00225826
160.0,-0.00204663
160.0,-0.00279552
160.0,-0.00303854
160.0,-0.00204956
160.0,-0.00137198
160.0,-0.00159753
160.0,-0.00397447
160.0,-0.00171187
160.0,-0.00195651
160.0,-0.00233293
160.0,-0.00279779
160.0,-0.00106618
160.0,-0.00310508
160.0,-0.00291586
160.0,-0.00372913
160.0,-0.00438177
160.0,-0.00761277
160.0,-0.00331387
160.0,-0.00162959
160.0,-0.00293303
160.0,-0.00110808
160.0,-0.00653886
160.0,-0.00270198
160.0,-0.00138484
160.0,-0.00143549
160.0,-0.00327171
160.0,-0.00262409
160.0,-0.0032088
160.0,-0.0014758
160.0,-0.00614914
160.0,-0.00156035
160.0,-0.00151006
160.0,-0.00153626
160.0,-0.00289744
160.0,-0.00209575
160.0,-0.00165205
160.0,-0.00484565
160.0,-0.00170392
160.0,-0.00762562
160.0,-0.00184787
160.0,-0.00206984
160.0,-0.00173214
160.0,-0.0019589
160.0,-0.00127026
160.0,-0.0021349
160.0,-0.00234588
160.0,-0.00436283
160.0,-0.00162531
160.0,-0.00407344
160.0,-0.0018911
160.0,-0.00434797
160.0,-0.00341483
160.0,-0.00310508
160.0,-0.00150913
160.0,-0.00270506
160.0,-0.00151517
160.0,-0.00208899
160.0,-0.00210424
160.0,-0.00188687
160.0,-0.00148745
160.0,-0.00329191
160.0,-0.00197587
160.0,-0.00206927
160.0,-0.00334304
160.0,-0.00393007
160.0,-0.0012571
160.0,-0.00213929
160.0,-0.00278072
160.0,-0.00152174
160.0,-0.00155405
160.0,-0.00202469
160.0,-0.00217695
160.0,-0.00177553
160.0,-0.00176716
161.056,-0.00297246
165.0,-0.00237448
165.0,-0.00154756
165.0,-0.00155001
165.0,-0.00290041
165.0,-0.00276608
165.0,-0.00955926
165.762,-0.00145639
167.0,-0.00318115
170.0,-0.0015147
170.0,-0.00141092
170.0,-0.00433925
170.0,-0.00148947
170.0,-0.00728963
170.0,-0.00158601
170.0,-0.00397621
170.0,-0.00376211
170.0,-0.00596119
170.0,-0.00274543
170.0,-0.00156673
170.0,-0.00307406
170.0,-0.00523812
170.0,-0.00199464
170.0,-0.00509294
170.0,-0.00192416
170.0,-0.00191635
170.0,-0.0054036
170.0,-0.00128397
170.0,-0.00344996
170.0,-0.00188216
170.0,-0.00630336
170.0,-0.00313542
170.0,-0.00495529
170.0,-0.0028893
170.0,-0.00141092
170.0,-0.00295309
170.0,-0.00227509
170.0,-0.00220717
170.0,-0.00175629
170.0,-0.0015689
170.0,-0.00237162
170.0,-0.00313038
170.0,-0.00180496
170.0,-0.00273593
170.0,-0.00759533
170.0,-0.00175466
170.0,-0.00248176
170.0,-0.00188349
170.0,-0.0043743
170.0,-0.00159155
170.0,-0.00398977
170.0,-0.00149447
170.0,-0.00135682
170.0,-0.00151933
170.0,-0.00140373
170.0,-0.00267815
170.0,-0.0019386
170.0,-0.00133829
170.0,-0.00204504
170.0,-0.00262404
170.0,-0.0014032
170.0,-0.001648
170.0,-0.00186024
170.0,-0.00208878
170.0,-0.00227316
170.0,-0.00211212
170.0,-0.00142415
170.0,-0.00143833
170.0,-0.00746573
170.0,-0.00159305
170.0,-0.00312524
170.0,-0.00242099
170.0,-0.00692803
170.0,-0.00559021
170.0,-0.00238425
170.0,-0.00492945
170.0,-0.00446513
170.0,-0.00226377
170.0,-0.00156322
170.0,-0.00496957
170.0,-0.0016052
170.0,-0.00301953
170.0,-0.00127788
170.0,-0.00259459
170.0,-0.00154895
170.0,-0.00388288
170.0,-0.00145654
170.0,-0.0014246
170.0,-0.00284632
170.0,-0.00157801
170.0,-0.00314456
170.0,-0.00370622
170.0,-0.001535
170.0,-0.00246857
170.0,-0.00402571
174.0,0.00662334
175.0,-0.00193504
175.0,-0.00147693
175.0,-0.00294568
175.0,-0.00423499
175.0,-0.00151034
175.0,-0.000968413
175.0,-0.00145562
175.0,-0.00120748
175.0,-0.00116434
175.0,-0.00149351
175.0,-0.00146475
175.0,-0.00290129
175.0,-0.00142176
175.0,-0.00110297
175.0,-0.00148124
175.0,-0.00276691
175.0,-0.00251347
175.0,-0.00136993
175.0,-0.00108078
175.0,-0.00195735
175.0,-0.00229162
175.0,-0.00160671
175.0,-0.00239303
175.0,-0.00113558
175.0,-0.00182898
175.0,-0.00103345
175.0,-0.00142828
175.0,-0.000538827
175.0,-0.00173407
175.0,-0.00184219
175.0,-0.00308347
175.0,-0.00150337
175.0,-0.00169524
175.0,-0.00216976
175.0,-0.0014734
175.0,-0.00173191
175.0,-0.00108886
175.0,-0.00123486
175.0,-0.00141192
175.0,-0.00191116
175.0,-0.00175411
175.0,-0.00151103
175.0,-0.00324213
175.0,-0.00146529
175.0,-0.00246915
175.0,-0.00160628
175.0,-0.0020243
175.0,-0.00265781
175.0,-0.00149354
175.0,0.0500282
175.0,-0.0011718
175.0,-0.00159539
175.0,-0.00124353
175.0,-0.00184535
175.0,-0.000538827
175.0,-0.00155435
175.0,-0.00180179
175.0,-0.00153318
175.0,-0.000941362
175.0,-0.000495212
175.0,-0.00130714
175.0,-0.00149239
175.0,-0.00164059
175.0,-0.00216417
175.0,-0.00199849
175.0,-0.000809801
175.0,-0.00184493
175.0,-0.00124409
175.0,-0.00240723
175.0,-0.00113082
175.0,-0.00143373
175.0,-0.0014337
175.0,-0.00154569
175.0,-0.00210995
175.0,-0.00154621
175.0,-0.00132373
175.0,-0.00119992
175.0,-0.00131856
175.0,-0.00166025
175.0,-0.00162425
175.0,-0.00146746
175.0,-0.00316358
175.0,-0.00294568
175.0,-0.00130116
175.0,-0.0011682
175.0,-0.00223925
175.0,-0.00223448
175.0,-0.00166095
175.0,-0.0018041
175.0,-0.00175774
175.0,-0.00289546
175.0,-0.00215425
175.0,-0.00176778
175.0,-0.00204176
175.0,-0.0011239
175.0,-0.000922815
175.0,-0.00183669
175.0,-0.0012296
175.0,-0.00208611
175.0,-0.00250465
175.0,-0.00154414
175.0,-0.00114811
175.0,-0.000990734
175.0,-0.00115855
175.0,-0.00187967
175.0,-0.00696112
175.0,-0.00132503
175.0,-0.00128098
175.0,-0.00193504
175.0,-0.00130503
175.0,0.0407127
175.0,-0.00370217
175.0,-0.00171565
175.0,-0.00268481
175.0,-0.00157618
175.0,-0.00144471
175.0,-0.00179273
175.0,-0.0017687
175.0,-0.00170949
175.0,-0.00233054
175.0,-0.00203353
175.0,-0.000880232
175.0,-0.0012372
175.0,-0.0013048
175.0,-0.00169407
175.0,-0.00142561
175.0,-0.00157103
175.0,-0.00566647
175.663,-0.0294785
178.0,-0.00289758
180.0,-0.00143991
180.0,-0.00199214
180.0,-0.00177072
180.0,-0.00210976
180.0,-0.00155825
180.0,-0.00246971
180.0,-0.00108079
180.0,-0.00579204
180.0,-0.00126777
180.0,-0.00210976
180.0,-0.00129225
180.0,-0.00123093
180.0,-0.00155825
180.0,-0.00126785
180.0,-0.00327429
180.0,-0.00216892
180.0,-0.00121943
180.0,-0.00155946
180.0,-0.00292159
180.0,-0.00162207
180.0,-0.00158016
180.0,-0.00210543
180.0,-0.0191249
180.0,-0.010919
180.0,-0.00190867
180.0,-0.00195559
180.0,-0.0012373
180.0,-0.00380876
180.0,-0.00422915
180.0,-0.0053403
180.0,-0.0109581
180.0,-0.010919
180.0,-0.00198512
180.0,-0.00322682
180.0,-0.000690422
180.0,-0.00111329
180.0,-0.00154567
180.0,-0.00189129
180.0,-0.00138431
180.0,-0.00301542
180.0,-0.00579697
180.0,-0.00213507
180.0,-0.0048457
180.0,-0.00738726
180.0,-0.00323686
180.0,-0.00216955
180.0,-0.00130452
180.0,-0.00119443
187.0,-0.00420326
190.0,-0.00537763
190.0,-0.00471322
190.0,-0.00515772
190.0,-0.00610529
190.0,-0.00723845
190.0,-0.00537763
190.0,-0.00491161
190.0,-0.00290785
200.0,-0.0504501
200.0,-0.00990174
200.0,-0.00955916
200.0,-0.00481033
200.0,-0.0104645
200.0,-0.00346422
200.0,-0.0113827
210.0,-0.00574871
210.0,-0.00241778
210.0,-0.00464248
220.0,-0.00308694
300.0,-0.00154443
450.0,-0.00129271
500.0,-0.0107646