File: KFI-RHO-LTA-UFI_paper/dependence_plot_data/LTA_H2OSi.csv
H$_2$O/Si,SHAP value
0.0,-0.000810537
0.0,-0.000993912
0.0,-0.00153291
0.0,-0.000856105
0.0,-0.00103075
0.0,-0.000297775
0.0,-0.000928497
0.0,-0.000598369
0.0,-0.001099
0.0,-0.00183393
0.0,-0.00101953
0.0,-0.00103233
0.0,-0.000934979
0.0,-0.000585739
0.0,-0.00156643
0.0,-0.00105614
0.0,-0.000869101
0.0,-0.000921673
0.0,-0.000969386
0.0,-0.000960376
0.0,-0.000825007
0.0,-0.00275436
0.0,-0.000919586
0.0,-0.000278727
0.0,-0.00783621
0.0,-0.000815843
0.0,-0.000809687
0.0,-0.000776855
0.0,-0.000793397
0.0,-0.000585739
0.0,-0.00264422
0.0,-0.00338624
0.0,0.000350453
0.0,-0.000611249
0.0,-0.000947899
0.0,-0.000847356
0.0,-0.00154854
0.0,-0.00072433
0.0,-0.00100789
0.0,-0.000706092
0.0,-0.000916673
0.0,-0.00111993
0.0,-0.000926285
0.0,-0.000796713
0.0,-0.00154076
0.0,-0.000948751
0.0,-0.00119627
0.17,-0.000693332
0.318182,-0.000613862
0.388889,-0.000603484
0.45,-0.00147616
0.614,-0.00198892
1.0,-0.00597419
1.06667,-0.000291742
1.78,-0.00291557
1.78,-0.00293192
1.80072,-0.000169783
2,-0.000422307
2,-0.00137202
2.04082,-8.28933e-05
2.04082,-0.000176895
2.079,-7.36924e-05
2.10084,-0.000190992
2.13333,-0.000430921
2.23881,-0.000571922
2.23881,-0.00036492
2.5,-0.000144802
2.5,-0.000492138
2.5,2.56044e-05
2.5,-0.000434904
2.85714,-0.000859416
3,-0.000289445
3,-0.000507434
3,-0.000363876
3.0,-0.000145017
3.0,-8.20488e-05
3.0,-0.000403431
3.06,-0.000418801
3.15,-0.000260747
3.29997,-0.000275883
3.29997,-0.000389656
3.29997,-0.000448207
3.29997,0.000149458
3.29997,-0.000210076
3.3,-0.0004285
3.3,-0.00019476
3.5225,-0.000994461
3.60144,-0.000448718
3.86111,-0.00551405
4,-0.00655845
4.0,-0.000148828
4.21053,-0.000532949
4.47761,-0.000339273
4.5,-0.000104522
4.54545,0.00229747
4.54545,-0.000149767
4.54545,0.00242598
4.54545,-0.000154284
4.54545,5.90897e-05
4.62766,-0.000329588
4.74716,-0.000458952
4.74716,-0.000414446
4.74716,-0.000436712
4.78717,-0.000189218
4.78723,0.0024098
4.78723,-0.00019797
4.8006,-0.000593604
4.84043,-0.000604029
4.84043,-0.000331915
4.89362,0.00170092
4.94681,-0.0002534
4.94681,-0.000250824
5,-0.00179824
5,-0.000530545
5,-0.000976846
5,0.0565993
5,0.00198441
5,-0.000498193
5,-0.00412249
5,-0.00290211
5,-5.7843e-05
5,-0.000682939
5,-0.000826294
5,-0.000392629
5,-0.000488263
5,-0.00205958
5.0,-0.00180277
5.0,-0.000665081
5.0,-0.001169
5.0,0.000338011
5.0,-0.00212608
5,-0.000100825
5,-0.00210614
5,-0.000462506
5,-0.00183886
5,0.00132662
5,0.0733807
5,-0.00351556
5,-0.00152757
5,-0.000343669
5,-0.000777738
5,0.000334096
5,0.00134575
5.01636,-0.00131149
5.10204,0.000482189
5.10204,6.24806e-05
5.16484,-0.000604983
5.17857,-0.000491744
5.19751,-7.26346e-05
5.2521,0.000344261
5.33333,-0.000242524
5.5,-0.00159863
5.5,-0.00133269
5.5,-0.00097962
5.6,-0.00211668
5.8,-0.000635551
5.84307,0.000407033
5.9727,-0.000123657
6,0.000460598
6,-0.000160512
6.13333,-0.00284962
6.25,-0.000942838
6.33,-0.00216234
6.5,-0.00319196
6.66667,-0.000853742
6.66667,0.000255583
6.8,-0.00138077
7,-0.000147983
7,-0.0012636
7,-0.00202791
7,-0.000344286
7,-0.000453697
7,-0.000531393
7,-0.000354576
7,-0.000421241
7,-0.000262386
7,-0.000188001
7.2366,-0.00295814
7.25,-0.00021906
7.28,-0.000801531
7.41667,-0.00215166
7.5,9.32437e-05
7.5,-0.00221237
7.5,-0.00091887
7.5,-0.000237345
7.68654,-0.00311456
7.69992,-0.000501057
7.69992,-0.00021939
7.69992,-0.000481537
7.69992,-0.000395464
7.69992,-0.000298881
7.75,0.00882439
7.89,0.011187
8.18938,-0.0107435
8.3,-0.00119728
8.5,-0.00213911
8.75,-0.00216444
8.788,-0.00422262
8.9876,-0.00213356
9.0,-0.00778055
9.0,-0.00721034
9.0,-0.00341239
9,-0.00362413
9.5,-0.00144071
9.58333,-0.00761067
9.8,-0.00201915
9.8,-0.00201593
9.87,-0.0012054
10,-0.00128365
10,-0.0018274
10,-0.00126791
10,-0.00218158
10.0,-0.00177766
10.0,-0.00072107
10.0,-0.00171577
10.0,-0.00126281
10.0,-0.00455502
10.0,-0.000853416
10.0,-0.00155018
10.0,-0.000808075
10.0,-0.000768495
10.0,-0.00618188
10.0,-0.00136392
10.0,-0.000802275
10.0,-0.0083442
10.0,-0.00882574
10.0,-0.00241957
10.0,-0.00104428
10.0,-0.00151912
10.0,-0.00104886
10.0,-0.00160693
10.0,-0.00411475
10.0,-0.000709366
10.0,-0.00133261
10.0,-0.00154667
10.0,-0.000719035
10.0,-0.000863744
10.0,-0.00455502
10,-0.00246592
10,-0.0108161
10,-0.000954569
10,-0.000903248
10,-0.000681152
10.2041,-0.000247952
10.395,-0.000797246
10.5042,-0.000759533
10.6061,-0.000594152
10.6061,-0.000882661
10.6061,-0.000880954
10.6061,-0.000992418
10.6061,-0.000912276
10.6667,-0.00238224
10.6667,-0.000980462
10.6667,-0.000729797
10.6667,-0.000868078
10.6667,-0.000924033
10.83,-0.00119654
10.8911,-0.0143653
11,-0.00262819
11.0,-0.00117017
11.0,-0.0108167
11.2833,-0.00530182
11.2833,-0.00512384
11.47,-0.00122422
11.6,-0.00838207
11.6,-0.00478172
11.6,-0.00795371
11.6977,-0.0112511
11.8,-0.00259643
11.8,-0.00260492
12,-0.0027746
12.0,-0.00285986
12.0512,-0.00463742
12.3457,-0.0011105
12.3457,-0.0011105
12.4375,-0.00188288
12.6,-0.00113024
12.6875,-0.00233109
13,-0.00236422
13.0,-0.0020376
13,-0.00218077
13,-0.00234517
13.12,-0.00249063
13.5,-0.00211893
13.5,-0.00180575
13.5,-0.00184117
13.5,-0.00844168
13.6459,-0.0054118
13.6459,-0.00541822
14,-0.00275388
14,-0.00871824
14,-0.00443366
14,-0.00583003
14,-0.0042911
14.0,-0.00194886
14.0,-0.0020083
14.0,-0.00263425
14.0,-0.00235443
14,-0.00213875
14.1803,-0.0068274
14.5,-0.0108772
14.7059,-0.00198095
14.8,-0.00212461
15,-0.00757868
15,-0.00157078
15,-0.00757868
15,-0.00490318
15,-0.0028775
15,-0.00263322
15,-0.0014005
15,-0.00383052
15,-0.00376653
15,-0.00124639
15,-0.00127128
15,-0.00107884
15,-0.00114208
15,-0.00102008
15,-0.00684404
15,-0.00147932
15,-0.00195259
15,-0.00175491
15.0,-0.00901559
15.0,-0.00288225
15.0,-0.00300303
15.0,-0.00151062
15.0,-0.00297272
15.0,-0.000883708
15.0,-0.00133143
15.0,-0.00363898
15.0,-0.00181037
15.0,-0.00220425
15.0,-0.00357626
15.0,-0.000585617
15.0,-0.00522629
15.0,-0.000630854
15.0,-0.0012161
15.0,-0.00337821
15.0,-0.00329763
15.0,-0.00395976
15.0,-0.0016672
15,-0.000749318
15,-0.0038384
15,-0.00543561
15,-0.0027004
15,-0.00334789
15,-0.00243382
15,-0.00167773
15.1515,-0.000729752
15.1515,-0.000877536
15.2,-0.00243396
15.5,-0.00315921
15.6,-0.00443681
15.7169,-0.00218101
15.8,-0.00202005
15.9259,-0.00194811
16.0,-0.0023624
16.0,-0.00444673
16.0,-0.00444673
16.0,-0.00084635
16.0,-0.00101433
16,-0.00072818
16,-0.0146601
16.1681,-0.00173121
16.2338,-0.00117183
16.4998,-0.000987283
16.4998,-0.000935053
16.4998,-0.000997507
16.4998,-0.00128465
16.4998,-0.00142813
16.4998,-0.00110932
16.6667,-0.0035107
16.6667,-0.00352918
16.6667,-0.00210604
16.6667,-0.00156628
16.6667,-0.00263676
16.6667,-0.00293837
16.6667,-0.00190605
16.6667,-0.00248417
16.6667,-0.00149352
16.6667,-0.00160763
16.6667,-0.00155405
17.1429,-0.00444086
17.765,-0.000789486
17.9,-0.00683214
17.9,-0.00776563
18.0,-0.00172627
18,-0.001892
18,-0.00645035
19.2,-0.000938291
19.2,-0.000879375
19.2,-0.000716175
19.5,-0.00089974
19.5,-0.000912679
19.5,-0.000895325
19.5,-0.000914865
19.5,-0.000966713
19.5352,-0.0106493
20,-0.000717164
20,-0.00119737
20,-0.00100352
20,-0.00078436
20,-0.000758347
20,-0.00231594
20,-0.00104518
20,-0.000671813
20,-0.000851962
20,-0.000843953
20,-0.000701108
20,-0.000629975
20,-0.000731106
20,-0.000846477
20,-0.00207735
20,-0.00078263
20,-0.0011012
20.0,-0.000858851
20.0,-0.00177853
20.0,-0.00108785
20.0,-0.00102795
20.0,-0.000732727
20.0,-0.00269035
20.0,-0.00168929
20.0,-0.00106428
20.0,-0.000895164
20.0,-0.00118084
20.0,-0.000745806
20.0,-0.000706931
20.0,-0.000736582
20.0,-0.00105803
20.0,-0.00117767
20.0,-0.00106209
20.0,-0.00165573
20.0,-0.0017487
20,-0.000882733
20,-0.000684209
20,-0.00615466
20,-0.00141157
20,-0.00141157
20,-0.000713722
20,-0.000736276
20,-0.00114846
20,-0.00232456
20,-0.00301911
20,-0.000686605
20,-0.00139553
20.4,-0.000426651
20.4,-0.000416604
20.4,-0.00041621
20.7,-0.00052885
21,-0.000443971
21,-0.000499453
21,-0.00132458
21.135,-0.000602036
21.135,-0.000668958
21.16,-0.000755292
21.5686,-0.00435059
22,-0.00354552
22.2222,-0.000699098
22.2222,-0.00142464
22.5,-0.000464057
22.7273,-0.00140046
22.7273,-0.000489949
22.7273,-0.000895937
22.7273,-0.00133388
23.2759,-0.000322068
23.5,-0.00106434
23.5189,-0.00102981
23.6,-0.00154968
23.6,-0.00217354
23.6,-0.00128769
23.8095,-0.0015119
24.0,-0.000222028
24.0,0.0358683
24.0625,-0.000603469
24.75,-0.00153301
24.7619,-1.10592e-05
25,-7.41222e-05
25,2.50068e-05
25,-0.000236716
25,-0.00289747
25,-0.000238769
25,-0.00231125
25,-0.00210719
25,-3.79561e-05
25.0,-0.000567337
25.0,5.25028e-05
25,-0.00372431
25,-0.00250968
25,-0.000618767
25,-0.000207831
25,-0.00248972
26.0,-1.8982e-05
26,-0.00215152
26,0.000963986
26.4,0.00379057
27.0,0.000298561
27.0507,-0.00130151
27.7778,0.0022545
27.9444,0.000327581
28,0.000711293
28,0.00035061
28,0.0010768
28.4,-0.00569724
29,0.00021795
30,0.000248775
30,0.000375021
30,-0.00159779
30,0.000218316
30,0.000545132
30,8.9368e-05
30,0.000108925
30,4.3942e-05
30,0.000563163
30,0.000948657
30,0.000154798
30,0.000560977
30,-0.000440968
30,0.000230762
30,0.000100716
30,5.82721e-05
30,0.000178161
30,0.000305281
30,0.000571815
30,0.000464496
30,0.000334118
30,0.00067762
30,0.000180626
30,0.000169085
30,0.000185732
30,0.000139975
30,0.000110801
30,-0.000269707
30,0.000168366
30,0.000272984
30,-0.000272176
30,0.000176706
30,0.000214703
30,0.000137492
30,-4.79745e-07
30,-0.000310994
30,0.000332525
30.0,0.000647441
30.0,0.00036296
30.0,0.000235996
30.0,0.000255806
30.0,0.00039582
30.0,0.000802239
30.0,0.000322024
30.0,0.00190499
30.0,0.000425563
30.0,0.000166276
30.0,-0.000229186
30.0,0.000462848
30.0,-0.00270511
30.0,0.000344066
30.0,0.000373606
30.0,0.000238182
30.0,8.9368e-05
30.0,0.000781345
30.0,0.000380051
30.0,8.08783e-05
30.0,0.000502125
30.0,0.000161536
30.0,0.000104945
30.0,7.93771e-05
30.0,0.000696802
30,0.00110542
30,0.0468944
30,0.000134212
30,0.000370899
30,6.6317e-05
30,0.000233793
30,0.0424793
30,0.000197403
30,-0.00512431
30,0.000663261
30,-0.00194207
30,-0.00461445
30,-0.00570536
30,6.6317e-05
30,0.00316055
30,0.00159088
30,5.01603e-05
30,0.0538424
30,0.0172603
30,1.49864e-05
30,0.000509183
30,4.14661e-05
30,-4.79745e-07
30,8.93543e-05
30,-4.66842e-05
30,9.65174e-05
30,0.000489775
30,0.00136662
30,0.000136587
30,0.000119389
30,0.000401716
30,0.000377492
30,-0.000183069
30,-0.000237178
30.45,0.000394122
31,0.000332365
31,0.00048187
31,0.000361029
31.0,-0.000409892
31,-0.000409517
31.2,0.000179155
31.2,0.00103457
31.9333,-0.000906131
32.2667,-0.00885355
33.2,-0.00131961
33.2,-0.00131247
35,-0.00490495
35,-0.00604977
35,0.000272176
35,-0.00522045
35,-0.00451995
35,0.000521888
35,-0.00152422
35,0.000235296
35,0.0274186
35,0.000197145
35,-0.00621986
35,-0.00558188
35,0.000261331
35,0.000828742
35,0.000239988
35.0,-0.00340881
35.0,-0.00533986
35.0,-0.00466824
35.0,-0.000937909
35.0,-0.0017068
35.0,0.000237847
35.0,0.000237847
35,-0.00476704
35,-0.00445561
35,-0.00113998
35.04,0.000158211
35.04,0.00026372
35.1333,0.00195119
35.3,-0.000307129
35.5333,0.000410313
35.5625,0.000963569
36,-0.0097472
36,-0.0097472
36,0.000108455
36,0.000388851
36,0.00066126
36.0144,0.000722613
36.7816,0.000618403
37.1818,0.000730905
37.182,0.000740013
37.182,0.000741379
37.182,0.000742173
37.5,0.0011181
37.5,0.00482228
38,0.000974366
38.0,0.00169686
38.0711,0.00162864
38.0711,0.00162864
38.2759,0.000854718
38.4124,0.000798145
38.6127,0.000930013
38.6598,0.00160951
39.5833,-0.00865717
40,0.00167621
40,0.00192429
40,0.0018402
40,0.0029565
40,0.00207937
40,0.00209678
40,0.00182897
40,0.00407633
40,0.00183454
40,0.00171929
40,0.00164361
40,0.00216709
40,0.0021191
40,0.00179765
40,0.00207465
40,0.0017152
40,0.00172104
40,0.00189544
40,0.00207805
40,0.00149239
40,0.0018549
40,0.0179423
40.0,0.00207465
40.0,0.0522971
40.0,0.00189885
40.0,0.00135907
40.0,0.00148459
40.0,0.00199884
40.0,0.0016556
40.0,0.00207529
40.0,0.0030598
40.0,0.00176963
40.0,0.00172533
40.0,0.010753
40.0,0.00185785
40.0,0.00167554
40.0,0.00300195
40.0,0.00187897
40.0,0.006913
40.0,0.00228949
40.0,0.00169303
40.0,0.00300834
40.0,0.00215576
40.0,0.00182888
40.0,0.00199884
40.0,0.0030492
40.0,0.00150932
40.0,0.00165764
40.0,0.00207465
40.0,0.00124519
40.0,0.00532051
40.0,0.00145007
40.0,0.00168847
40.0,0.00191842
40.0,0.00304884
40.0,0.00325761
40,0.0017969
40,0.00158729
40,0.0020203
40,0.00359412
40,0.00385269
40,0.00781694
40,0.00273494
40,0.00508283
40,0.00376125
40,0.00195549
40,0.0018179
40,0.00175595
40,0.00305614
40,0.00194847
40,0.00192564
40,0.00165293
40,0.00181914
40,0.00250358
40,0.00199443
40,0.00157469
40,0.00137286
40,0.0019505
40,0.00186252
40,0.00141045
40,0.0020203
40,0.00173038
40,0.00199206
40,0.00203561
40,0.00781694
40,0.00385269
40,0.00174755
40,0.00190446
40,0.00215212
40,0.00207813
40,0.00227761
40,0.00175902
40.3297,0.00159626
40.6,0.00174693
40.84,0.00208928
40.84,0.00190179
40.8889,0.000205102
41,0.00173116
41.25,0.00206619
41.5,0.00200607
41.72,0.00356552
42,0.00181948
42,0.00153954
42,0.0019367
42,0.00180623
42,0.00174833
42,0.00191996
42,0.00153928
42.0,0.00119506
42.0,0.00146974
42.0,0.0012274
42.0,0.00215609
42.2,0.00279129
42.3077,0.00210446
42.35,0.00309708
42.848,0.0103605
42.848,0.0102261
43.7584,0.0024513
43.7584,0.00175146
43.7584,0.00179427
43.7584,0.00210176
43.7584,0.0019514
43.7584,0.00300892
43.7584,0.0028143
43.7584,0.00205302
43.77,0.0028363
44,0.00232323
44,0.00419055
44,0.0017982
44.0,0.00207727
44.0,0.0019895
44.0,0.0019895
44,0.00206801
44,0.00160749
44,0.00173381
44.4444,0.000931482
44.8845,0.0051314
45,0.00214988
45,0.00142541
45,0.00164342
45,0.00257162
45.0,0.0022257
45.0,0.0019961
45.0,0.00162297
45.0,0.00273894
45.0,0.000361373
45,0.000336682
45,0.0022597
45,0.00167572
45,0.00216515
45,0.0023235
45,0.00122831
45,0.00178095
45,0.00143078
45.4545,0.00226542
45.4545,0.00130657
45.4545,0.00202997
45.4545,0.00131048
45.4545,0.000999065
45.5,0.00193645
45.5,0.00209179
45.6665,0.00231587
45.72,0.00342855
45.8746,0.00923206
46.6667,0.0038578
46.6667,0.00308019
48,0.00145585
50,0.00187832
50,0.00218596
50,0.00145898
50,0.000897709
50.0,0.003612
50,0.00125392
50,0.00122955
50,0.00256284
50,0.00442419
50,0.00352646
50,0.00131989
50,0.00135766
50,0.00104902
50.9356,0.000900843
52,0.00139981
54,0.00354642
54,0.00151885
54.1667,0.00918164
54.1667,0.00496547
56.3725,0.0383047
57,0.0138622
57.2414,0.00875938
58.3333,0.046191
58.6538,0.0038291
58.8235,0.00158191
60,0.00203907
60,0.00354436
60,0.00381099
60,0.00152512
60,0.00305153
60,0.00150097
60.0,0.0025717
60,0.00143185
60,0.000698462
60,0.00206498
62.2222,0.0498452
62.5,0.00373494
64,0.00239585
65,0.00332532
66.3636,0.0135402
66.6667,0.00284958
69.8,0.00168338
75,0.00146287
75,0.00135838
76.9231,0.00113934
80,0.00236335
80,0.00132034
83.3333,0.00320295
85.0,0.00353256
90.9091,0.045105
92,0.00219862
95,0.00187761
95,0.00274492
98.9583,0.00292954
100,0.00149599
100,0.00283979
100,0.00217052
100.0,0.00213042
100.0,0.00346883
100.0,0.00224054
100.0,0.00186328
100.0,0.00330424
100.0,0.00254606
100.0,0.00233421
100,0.000396084
100,0.00256422
100,0.00231679
100,0.00316156
100,0.00194968
110,0.00118473
111.0,0.00175464
116.0,0.00231166
120.0,-0.00316973
125.0,0.00271621
132.0,0.00127597
136.036,-0.00214739
139.333,0.00123814
161.765,0.0235178
161.765,0.0171954
174.0,0.00607177
180.0,0.0018448
200,0.000807442
200,-0.0158106
200.0,-0.0154874
200,0.00298857
240,0.00139304
250,0.00159673
400,-0.000921641
400,0.000206744
400,0.00143942
485.542,0.00409349
555,0.00544041
555,0.00277145
714.286,0.000870898