File: KFI-RHO-LTA-UFI_paper/dependence_plot_data/LTA_NaSi.csv
Na/Si,SHAP value
0.0,-0.00101336
0.0,-0.00105938
0.0,-0.00102425
0.0,-0.000584076
0.0,6.36263e-05
0.0,-0.000358027
0.0,-0.000497418
0.0,-0.00101336
0.0,-0.000551871
0.0,-0.000584454
0.0,-0.000101303
0.0,-0.000569022
0.0,-0.000615103
0.0,-8.85394e-05
0.0,-0.0011924
0.0,-0.000529457
0.0,-0.000887422
0.0,-0.000265645
0.0,-0.00239372
0.0,-0.00129899
0.0,-0.000589802
0.0,-0.000318188
0.0,-0.000316591
0.0,-0.000484586
0.0,-0.000551269
0.0,-0.000375518
0.0,-0.00155841
0.0,-0.0021456
0.0,-0.000844502
0.0,-0.000306145
0.0,-0.000574173
0.0,-0.000524066
0.0,-0.000715163
0.0,-0.00138491
0.0,-0.0011912
0.0,-0.00046041
0.0,-0.000272717
0.0,-0.00360539
0.0,-7.57741e-05
0.0,-0.000313764
0.0,-0.00119607
0.0,-0.000551128
0.0,-0.0034521
0.0,-0.00266333
0.0,-0.000895447
0.0,0.0132002
0.0,-0.00108279
0.0,-0.000770726
0.0,-0.000362469
0.0,-0.0164118
0.0,-0.00159569
0.0,-0.000213374
0.0,-0.000257229
0.0,-0.00280175
0.0,-0.000340918
0.0,-0.022276
0.0,-0.000421265
0.0,-0.000251395
0.0,0.000183239
0.0,-0.00138254
0.0,-0.0246101
0.0,-0.00134573
0.0,-0.000246191
0.0,-0.000602342
0.0,-0.000888737
0.0,-0.000769886
0.0,-0.000624481
0.0,-0.000529457
0.0,-0.000714608
0.0,-0.00404233
0.0,0.00262864
0.0,-0.000173649
0.0,-0.00138254
0.0,-0.00398104
0.0,-0.000601021
0.0,-0.00110368
0.0,-0.000254342
0.0,-0.000856984
0.0,-0.00032126
0.0,-0.020212
0.0,0.00507775
0.0,-0.000353728
0.0,-0.0012395
0.0,-0.00951134
0.0,0.00311101
0.0,0.0036695
0.0,0.00013768
0.0,-0.000503973
0.0,-0.00100749
0.0,-0.0484423
0.0,0.00109233
0.0,-0.000776385
0.0,-0.00420713
0.0,-5.51231e-05
0.0,-0.000896805
0.0,-0.0206081
0.0,-0.00124254
0.0,-0.00489928
0.0,-0.00111935
0.0,-0.000919427
0.0,-0.000351761
0.0,-0.000995495
0.0,-0.000290469
0.0,-0.000158955
0.0,-0.000995742
0.0,-0.00102691
0.0,-0.000555465
0.0,-0.000769879
0.0,-0.000873859
0.0,-0.00160896
0.0,-0.000283051
0.0,-0.0219304
0.0,-0.000274544
0.0,-0.000573873
0.0,-0.000555112
0.0,-0.000173957
0.0,-0.00117152
0.0,0.00127714
0.0,-0.000369188
0.0,-0.00109396
0.0,-0.000328721
0.0,-0.000630021
0.0,-0.0325355
0.0,-0.000337574
0.0,-0.00171454
0.0,-0.000846369
0.0,-3.71559e-05
0.0,-0.000135067
0.0,-0.00372705
0.0,-0.000880675
0.0,-0.000614538
0.0,-0.0012118
0.0,-0.00419797
0.0,-0.00130651
0.0,-0.00136522
0.0,0.00127806
0.0,-0.000264876
0.0,-0.00181725
0.0,-0.000379962
0.0,-0.0347023
0.0,-0.0191414
0.0,-0.000589117
0.0,-0.000827349
0.0,-0.00071476
0.0,-0.000606809
0.0,-0.00544192
0.0,-0.000205323
0.0,-0.000640524
0.0,-0.000371263
0.0,-0.00325206
0.0,-0.000661446
0.0,-0.0188519
0.0,-0.000900982
0.0,-7.73623e-06
0.0,-0.000964378
0.0,-0.000278486
0.0,-0.0300747
0.0,-0.000565234
0.0,-0.000523198
0.0,-0.000667662
0.0,-0.000878249
0.0,-0.00101121
0.0,-0.00106314
0.0,-0.000553463
0.0,-0.0105907
0.0,-0.0238746
0.0,-0.000851905
0.0,-0.00127798
0.0,-0.000662383
0.0,0.000157605
0.0,-0.00656151
0.0,-0.00242908
0.0,-0.0232896
0.0,-0.000650946
0.0,-0.000227452
0.0,-0.0107213
0.0,-0.000782263
0.0,-0.00042183
0.0,-0.00159569
0.0,-0.000405788
0.0,-0.00748989
0.0,-0.000315913
0.0,-0.000614822
0.0,-0.00103442
0.0,-0.0046235
0.0,-0.00119827
0.0,-0.00184727
0.0,-0.000392018
0.0,-0.00578153
0.0,-0.000507908
0.0,-0.000368924
0.0,-0.00123511
0.0,-0.000327006
0.0,-0.00114772
0.0,7.14864e-05
0.0,-0.000740313
0.0,0.060573
0.0,-0.00113253
0.0,-0.000566224
0.0,-0.000963047
0.0,-0.000307498
0.0,-0.000882656
0.0,-0.000309832
0.0,-0.000759177
0.0,-0.000305951
0.0,-0.000291181
0.0,-0.00172715
0.0,-0.000629187
0.0,-0.000251822
0.0,-0.0278043
0.0,-0.0256076
0.0,-0.000371666
0.0,-0.000275332
0.0,-0.00608398
0.0,0.00142125
0.0,-0.00110792
0.0,-0.000997533
0.0,-0.000948818
0.0,-0.000986443
0.0,-0.000558385
0.0,-0.000555465
0.0,-0.000106772
0.0,-0.00185984
0.0,-0.00467722
0.0,-0.000620885
0.0,-0.000962982
0.0,6.30379e-05
0.0,-0.000829613
0.0,-0.000251448
0.0,0.060573
0.0,-0.0140485
0.0,0.000637092
0.0,-0.000142753
0.0,-0.000217293
0.0,-0.0156472
0.0,-0.00719678
0.0,-0.000803276
0.0,-0.00052846
0.0,-0.000628508
0.0,-0.00400557
0.0,-0.00159569
0.0,-0.00105997
0.0,-0.000467378
0.0,-0.000599978
0.0,-5.72937e-05
0.0,-0.000637736
0.0,-0.00072834
0.0,-0.00124942
0.0,-0.000114854
0.0,-0.000709586
0.0,-0.000164018
0.0,-0.00058616
0.0,-0.000607129
0.0,-0.0012685
0.0,-0.00025233
0.0,-0.00035976
0.0,-0.000924307
0.0,-0.00116227
0.0,-0.00115869
0.0,-2.75557e-05
0.0,-0.00688531
0.0,-0.000354456
0.0,0.000163282
0.0,-0.00272322
0.0,-0.00123511
0.0,-0.000850241
0.0,-0.00052937
0.0,-0.000120976
0.0,-0.00113484
0.0,-0.000210471
0.0,-0.0179112
0.0,-0.000850921
0.0,5.54825e-05
0.0,-0.000353747
0.0,-0.000329254
0.0,-0.000213957
0.0,-0.00124207
0.0,-0.00417778
0.0,-0.00111215
0.0,-0.000150581
0.0,-0.00060913
0.0,-0.000806054
0.0,-0.000820065
0.0,-0.000377918
0.0,-0.000894732
0.0,-0.000545135
0.0,-0.002482
0.0,-0.00096219
0.0,0.00031715
0.0,-0.000899225
0.0,-0.00031679
0.0,-0.00027453
0.0,-0.000281777
0.0,-0.000664216
0.0,-0.000121779
0.0,-0.000601463
0.0,-0.000224903
0.0,-0.00469766
0.0,-0.000773485
0.0,-0.000641831
0.0,-0.00114683
0.0,-0.00151306
0.0,-0.000758889
0.0,-0.00854187
0.0,-0.000443833
0.0,-0.000728753
0.0,3.36174e-05
0.0,-0.00429023
0.0,-0.000611027
0.0,-0.00113926
0.0,-2.70757e-05
0.0,-0.000329613
0.0,-0.00062768
0.0,-0.000822547
0.0,-0.00102425
0.0,-0.000407837
0.0,0.000491245
0.0,-0.00843141
0.0,-0.000106465
0.0,-0.00112911
0.0,0.00140607
0.0,-0.000899061
0.0,0.000351796
0.0,-0.000258286
0.0,-0.00105977
0.0,0.000119901
0.0,-0.000723375
0.0,-0.00100862
0.0,-0.000357168
0.0,-0.000598335
0.0,0.000253263
0.0,0.000229366
0.0,0.000567517
0.0,-0.00487428
0.0,-0.00107549
0.0,-0.000480533
0.0,-0.0013051
0.0,-0.001563
0.0,-0.000499589
0.0,-0.000457795
0.0,-0.00102425
0.0,-0.0001775
0.0,-0.000400114
0.0,-0.000122475
0.0,0.0341238
0.0,-0.000955202
0.0,-0.000620533
0.0,-0.00114989
0.0,-0.000769236
0.0,-0.00252294
0.0,-0.00096219
0.0,-0.000451596
0.0,-0.000436361
0.0,-0.00110353
0.0,-0.000291181
0.0,-0.000388918
0.0,-0.000532805
0.0,-0.000238729
0.0,-0.000232566
0.0,-0.000895538
0.0,-1.20869e-05
0.0,-0.00103766
0.0,-0.000424444
0.0,-0.000541745
0.0,8.68807e-05
0.0,-0.0164118
0.0,0.000151739
0.0,-0.000266078
0.0,-0.0135641
0.0,-0.0105435
0.0,-0.000784669
0.0,-0.000118944
0.0,-0.000342631
0.0,-0.00453809
0.0,-0.000822602
0.0,-0.00462636
0.0,0.000169548
0.0,-0.00117666
0.0005,-0.000877671
0.002,-0.000344965
0.004,-0.000260479
0.008,-0.000129441
0.0084,-0.000364238
0.01,-0.00020387
0.0124103,-0.000250021
0.0125,-0.000175129
0.0133333,3.7342e-05
0.01575,-8.38283e-05
0.018,0.000143407
0.0188235,-0.0178886
0.02,0.000156049
0.02,0.000628812
0.02,6.50562e-05
0.02,-5.80898e-05
0.02,0.000107434
0.02,5.41073e-05
0.02,0.000377373
0.02,6.47516e-05
0.02,0.000399939
0.0220513,0.00020067
0.022069,-0.0217219
0.0227273,0.000677774
0.0240385,-0.0260198
0.0243333,2.87901e-05
0.0243333,2.87901e-05
0.025,0.00067196
0.025,9.21718e-05
0.025,0.000686022
0.025,0.000656854
0.0261438,0.0156601
0.028,0.000538597
0.029,0.000455697
0.0294,0.000392302
0.03,0.000410047
0.03,0.000546938
0.03,0.000168445
0.03,0.000347367
0.03,0.000598487
0.03,0.000318788
0.03,-0.0163386
0.03,0.000360216
0.03125,0.00051107
0.0333333,0.000492851
0.0333333,0.00181749
0.04,0.00164519
0.04,0.000805558
0.04,0.000751209
0.04,0.00090219
0.043,0.000753754
0.046,0.000947122
0.046,0.000927348
0.05,0.00153881
0.05,0.00120279
0.05,0.00188814
0.05,0.00116379
0.05,0.00353332
0.05,0.000580255
0.05,0.00142244
0.05,0.00153881
0.05,0.00102737
0.05,0.00140175
0.05,0.00162112
0.05,0.00104419
0.056,0.0012443
0.06,0.00226897
0.06,0.00226774
0.06,0.00205329
0.06,0.00168354
0.06,0.00267763
0.06,0.00211462
0.06,0.000952021
0.0625,0.00576803
0.0625,-0.012251
0.0625,-0.0120589
0.0625,0.0365681
0.0638298,0.0014292
0.0659341,0.00140945
0.066,0.00119731
0.0666667,0.00264501
0.07,0.00220105
0.07,0.00145626
0.07,0.00263307
0.0711111,0.0578413
0.0733333,0.00193229
0.075,0.00111584
0.075,0.00110453
0.075,0.00129041
0.0788,0.00198461
0.08,0.00211422
0.08,0.00202804
0.08,0.00248542
0.08,0.00236064
0.08,0.00201794
0.08,0.00397113
0.08,0.00215502
0.08,0.0010872
0.08,0.00189012
0.08,0.00431213
0.08,0.000611172
0.08,0.00165088
0.083,0.00144268
0.083,0.00276148
0.085,0.00221867
0.09,0.00257411
0.09,0.00161057
0.09,0.00195776
0.09,0.00210398
0.0901857,0.00212407
0.093,0.00221166
0.098,0.00331772
0.1,0.0020016
0.1,0.00168901
0.1,0.00117415
0.1,0.00188133
0.1,0.00120934
0.1,0.00143755
0.1,0.0013742
0.1,0.0013742
0.1,0.00149944
0.1,0.00132919
0.1,0.00146086
0.1,0.00138245
0.1,0.00301419
0.1,0.00183544
0.1,0.00111032
0.1,0.00196095
0.1,0.00231072
0.1,0.00139174
0.1,0.0023512
0.1,0.00182755
0.1,0.00149502
0.1,0.00134431
0.1,0.001447
0.1,0.00241462
0.1,0.0023745
0.1,0.00147667
0.1,0.00144126
0.1,0.0012695
0.1,0.00143391
0.1,0.00101274
0.1,0.00146491
0.1,0.00142612
0.1,0.000927925
0.1,0.00139227
0.1,0.00126206
0.1,0.00228908
0.1,0.003156
0.1,0.00193382
0.100671,0.00163821
0.100671,0.00145288
0.100671,0.00199724
0.100671,0.00158209
0.100671,0.00180214
0.100671,0.00201507
0.100671,0.00158705
0.100671,0.0021835
0.106,0.00122707
0.106667,0.0522562
0.11,0.00170557
0.11,0.00164153
0.11,0.00236554
0.11,0.00239784
0.11,0.00243095
0.11,0.00229397
0.11,0.00181319
0.11,0.00218081
0.11,0.00208009
0.11,0.00239546
0.11,0.00239784
0.111,0.00175366
0.114286,0.00117586
0.116667,0.00120784
0.117647,0.0549598
0.117647,0.0661177
0.12,0.00242564
0.12,0.00153666
0.12,0.00212935
0.12,0.00220715
0.12,0.00132642
0.12,0.00217492
0.12,0.00515559
0.13,0.00198241
0.13,0.00194898
0.133333,0.00243778
0.133333,0.00304702
0.134,0.00290501
0.134,0.00271383
0.136364,0.0818016
0.14,0.00206265
0.14,0.00456709
0.14,0.00249159
0.142857,0.00186968
0.15,0.00142496
0.15,0.00153242
0.15,0.00286933
0.15,0.00141403
0.15,0.00106307
0.15,0.00105718
0.15,0.00138793
0.15,0.000280224
0.15625,0.00112924
0.16,0.00145358
0.16,0.00239394
0.16,0.0025489
0.16,0.00726889
0.16,0.00159061
0.16,0.00335502
0.1646875,0.000791839
0.17,0.00288531
0.18,0.00530467
0.18,0.00151737
0.18,0.00150677
0.18,0.00155824
0.18,0.000448127
0.18,0.00210517
0.18,0.00152286
0.18,0.00214448
0.18,0.00176779
0.18,0.00175435
0.18,0.00160202
0.18,0.00168173
0.18,0.00166832
0.18,0.000998712
0.18,0.00103053
0.18,0.00194592
0.185,0.000832718
0.19,0.00198003
0.19,0.00211155
0.192308,0.00159726
0.2,0.00277409
0.2,0.00170259
0.2,0.00185731
0.2,0.00276818
0.2,0.00292489
0.2,0.00276818
0.2,0.00169776
0.2,0.00129047
0.2,0.00248658
0.2,0.00172586
0.2,0.00142717
0.2,0.0018559
0.2,0.001621
0.2,0.00184265
0.2,0.00118173
0.2,0.00167686
0.2,0.00048851
0.2,0.00341552
0.2,0.00242812
0.2,0.0018586
0.2,0.0017119
0.2,0.00204072
0.2,0.00130472
0.2,0.00142931
0.2,0.0021548
0.2,0.00313524
0.2,0.00128203
0.2,0.00237439
0.2,0.00100577
0.2,0.00100584
0.2,0.001583
0.2,0.00138666
0.2,0.00316975
0.2,0.00265597
0.20625,0.00254466
0.21,0.0024983
0.21,0.00121131
0.216,-0.00367894
0.22,0.00194238
0.22,0.0027372
0.22,0.00145749
0.22,0.00135038
0.22,0.00131642
0.22,0.00180764
0.220022,0.00370163
0.222222,0.00127704
0.239,0.00288749
0.24,0.00107103
0.24,0.00191726
0.24,0.00170636
0.24,-0.000123725
0.24,0.00193304
0.244706,0.00281916
0.246032,0.00131471
0.246032,0.00130091
0.25,0.00106129
0.25,0.0765949
0.25,0.0404663
0.25,0.00360934
0.25,0.00290507
0.25,0.0015962
0.25,0.00164403
0.25,0.00065111
0.26,0.00107417
0.266667,0.000847158
0.27,0.00215129
0.276667,0.000875455
0.276923,0.00086828
0.28,7.76071e-05
0.28,0.00237192
0.28,0.00158672
0.28,0.00190836
0.282,0.00108098
0.285,0.00112962
0.29697,0.000824154
0.3,0.00596034
0.3,0.00088451
0.3,0.00160404
0.3,0.0016395
0.3,0.00211242
0.3,0.000535969
0.3,-0.00170101
0.3,0.00067234
0.3,0.000915487
0.3,-0.000227064
0.3,0.00200105
0.3,0.00125086
0.3,0.00113011
0.3,0.000793492
0.3,0.00211327
0.3,0.00136439
0.3,0.00140013
0.3,0.00117022
0.3,0.00136842
0.3,0.00359249
0.3,0.00361484
0.3,0.00135859
0.3,0.000881813
0.3,0.00133986
0.31,0.00291475
0.32,0.00645064
0.32,0.00146923
0.32,0.00706734
0.328571,0.00213725
0.33,0.000885434
0.33,0.000649469
0.33,0.000870806
0.33,0.000779767
0.333333,0.00114138
0.333333,0.000669337
0.333333,0.000721089
0.333333,0.00100079
0.333333,0.000911219
0.348,0.000702127
0.35,0.00120663
0.35,-0.00114409
0.35,0.000402527
0.35493,0.0303878
0.359971,0.00159428
0.36,0.00141498
0.36,0.00202734
0.36,0.00120284
0.36,0.00090213
0.365,0.000860487
0.369231,0.000785743
0.369231,0.000787434
0.379939,0.00314056
0.38,-7.78458e-05
0.38,-0.000741497
0.38,-0.00114861
0.38,0.000726072
0.4,0.00117819
0.4,0.000864079
0.4,0.00126681
0.4,0.00138237
0.4,-5.75813e-06
0.4,0.00240026
0.404959,0.000708037
0.409091,0.000713466
0.409091,0.00102124
0.42,0.00126124
0.42,0.000654897
0.42,0.00126124
0.42,0.00126124
0.439947,0.00136813
0.45,0.00131401
0.45625,0.0010185
0.46,-0.00148397
0.46,0.000876947
0.464972,0.000604445
0.466,0.000630707
0.466,0.000416919
0.466,0.000668605
0.466667,0.000943436
0.47,0.000569969
0.47,0.000593946
0.47,0.000599176
0.47,0.000617136
0.47,0.000504374
0.47,0.000956422
0.472727,0.000933072
0.472727,0.000933607
0.48,-0.000423807
0.48,0.000480129
0.48,0.00163048
0.48,0.0003504
0.48,0.000401754
0.48,0.00101469
0.485437,3.30944e-05
0.5,0.00408017
0.5,0.000528928
0.5,0.00164433
0.5,0.00531448
0.5,0.0016182
0.5,0.000598795
0.5,0.0137811
0.5,0.00365258
0.5,0.00445415
0.52,0.000966976
0.52,0.00121185
0.52,-0.000829198
0.52,-0.000573798
0.524843,0.000918726
0.524843,0.000881429
0.525,0.0018417
0.527778,-0.0120903
0.527778,-0.0088101
0.527778,-0.00548483
0.529,0.00112215
0.529,0.00111013
0.529,0.00111394
0.529,0.00110166
0.533333,0.00217884
0.54,0.00100381
0.54,0.000545592
0.54,0.000630529
0.54,0.000585704
0.54,0.000913913
0.542005,-0.000254749
0.542005,0.000156623
0.542005,1.89997e-05
0.555556,0.0042912
0.5559,0.000434515
0.5559,0.00038155
0.56,0.000595018
0.56,-0.000126922
0.56,0.000241429
0.566667,0.000298203
0.571429,0.00412076
0.572,0.000345632
0.574713,5.20943e-05
0.57732,0.000305608
0.58,0.000289973
0.58,0.00034392
0.58,0.00064853
0.588889,0.000725237
0.598232,-0.00187339
0.6,0.000411004
0.6,0.00142354
0.6,0.000229013
0.6,-0.000471112
0.6,-0.00124662
0.6,-0.000156659
0.6,0.00113352
0.6,0.000366716
0.6,0.0024765
0.6,0.00121018
0.6,0.000472527
0.6,0.000103663
0.6,0.000433326
0.6,0.000411882
0.6,0.00039825
0.6,0.00152248
0.6,0.000545005
0.6,0.000334192
0.6,0.000457349
0.6,0.000913327
0.6,0.00117081
0.6,0.00116606
0.6,0.000457349
0.6,0.000451844
0.6,0.00040658
0.6,0.000418329
0.6,0.00150654
0.6,0.000605828
0.6,-0.000186572
0.6,0.000327341
0.6,0.000762707
0.6,0.000545171
0.6,0.000433326
0.601408,-0.000720881
0.6269,0.000618309
0.6269,0.000608844
0.6344,0.00157282
0.64,0.000387172
0.64,0.00120243
0.64,0.00109839
0.64,0.00116174
0.64,-0.00107978
0.64,-0.000689093
0.65,-0.00108073
0.65,-0.00783347
0.65,-0.000903241
0.6609,0.000815774
0.666667,0.00307134
0.7,-0.000231709
0.7,-5.52188e-08
0.7,6.62638e-05
0.7,0.000690302
0.7,0.000493358
0.7,0.000330365
0.704348,0.000437647
0.712644,0.000283826
0.716763,-1.02319e-05
0.72,-0.000675184
0.723404,-0.000403414
0.73,0.000170783
0.73,-1.26952e-05
0.73,-1.22548e-05
0.73,0.000170783
0.73,0.000179319
0.73,0.000527994
0.73,0.000581014
0.73,0.000199729
0.73,0.000269313
0.73,0.000237083
0.75,-0.00024786
0.77037,0.00028505
0.77037,0.00028505
0.78,-0.00679566
0.8,8.93401e-05
0.8,0.00110036
0.8,-6.05581e-05
0.8,-8.2207e-05
0.8,0.000303548
0.8,0.00013121
0.8,0.00106248
0.8,0.000312282
0.8,-0.000235462
0.809787,-0.000496489
0.829268,-0.00404068
0.833333,-0.00164033
0.833333,-0.00181215
0.841429,5.18322e-05
0.867925,-0.00210977
0.87,0.000113888
0.87,-0.000125361
0.87037,-0.00112775
0.88,-0.0147718
0.88,-0.0147718
0.9,-0.00775703
0.92,-0.00397726
0.944444,-0.00603639
0.95,-0.010678
0.959693,-0.0032572
0.967742,-0.000207436