File: KFI-RHO-LTA-UFI_paper/dependence_plot_data/LTA_OHSi.csv
OH/Si,SHAP value
0.0,-0.000475415
0.0,-0.000440107
0.0,-0.000731249
0.0,-0.00296354
0.0,-0.00089403
0.0,-0.000895031
0.0,-0.0021854
0.0,-0.000662325
0.0,-0.000542528
0.0,-0.000512681
0.0,-0.00205726
0.0,-0.00106084
0.0,-0.000283558
0.0,-0.000518247
0.0,-0.00117854
0.0,-0.00131142
0.0,-0.000747569
0.0,-0.000113382
0.0,-0.000857737
0.0,-0.00186024
0.0,-0.000586722
0.0,-0.00336001
0.0,-0.00392057
0.0,-0.00053676
0.0,-0.000602609
0.0,-0.000530409
0.0,-0.000418623
0.0,-0.000545965
0.0,-0.000606892
0.0,-0.000736034
0.0,0.0337731
0.0,-0.00303894
0.0,-0.000517466
0.0,0.00309477
0.0,-0.000648092
0.0,-0.00136929
0.0,-0.00143442
0.0,-0.000717506
0.0,-0.000923758
0.0,-0.00143125
0.0,-0.000215884
0.0,-0.00251661
0.0,-0.000622654
0.0,-0.000667979
0.0,-0.000482802
0.0,0.0359741
0.0,-0.000154442
0.0,-0.000875811
0.0,-0.001237
0.0,0.00559531
0.0,-0.000668724
0.0,-0.000461994
0.0,-0.000971821
0.0,-0.000756597
0.0,-0.000910204
0.0,-0.00287128
0.0,-0.000964919
0.0,-0.0065045
0.0,-0.00647585
0.0,-0.00586163
0.0,-0.0004709
0.0,-0.00300123
0.0,-0.00051545
0.0,-0.00129898
0.0,-0.000582288
0.0,-0.00067206
0.0,-0.0012967
0.0,-0.00177921
0.0,-0.000418435
0.0,-0.000624274
0.0,-0.00195331
0.0,-0.00293285
0.0,0.00446153
0.0,-0.000679123
0.0,0.016439
0.0,-0.0006039
0.0,-0.00128872
0.0,-0.000751885
0.0,-0.000625493
0.0,-0.00167651
0.0,-0.000699808
0.0,-0.000444338
0.0,-0.000667932
0.0,-0.000606259
0.0,-0.000500426
0.0,-0.0130648
0.0,0.000670609
0.0,-0.000878228
0.0,-0.000565742
0.0,-0.000683432
0.0,-0.000574253
0.0,-0.000386887
0.0,-0.00184521
0.0,-0.000516558
0.0,-0.000804895
0.0,-0.000604577
0.0,-0.000815089
0.0,-0.00116502
0.0,-0.000462797
0.0,-0.000705776
0.0,-0.000609462
0.0,-0.000312189
0.0,-0.00302254
0.0,-0.00265428
0.0,-0.00124959
0.0,-0.00246876
0.0,-0.000654392
0.0,-0.00124756
0.0,-0.00118303
0.0,0.00415334
0.0,-0.00151969
0.0,-0.000665128
0.0,-0.000557554
0.0,-0.000701506
0.0,-0.00059986
0.0,-0.000638716
0.0,-0.000299244
0.0,-0.00162258
0.0,-0.000815905
0.0,-0.000609375
0.0,-0.000945707
0.0,-0.000644301
0.0,-0.000644912
0.0,-0.00324278
0.0,-0.000648155
0.0,-0.00150895
0.0,-0.000302317
0.0,0.0492983
0.0,-0.000335924
0.0,-0.00144072
0.0,-0.00117521
0.0,-0.000674538
0.0,-9.90705e-05
0.0,-0.000474724
0.0,-0.000884099
0.0,-0.00154301
0.0,-0.00177056
0.0,-0.000515834
0.0,-0.000416297
0.0,-0.000965356
0.0,-0.00107653
0.0,-0.00219216
0.0,-0.000606084
0.0,-0.000581669
0.0,-0.00281908
0.0,-0.000788174
0.0,-0.00227016
0.0,-0.00071784
0.0,-0.000612531
0.0,-0.0020229
0.0,-0.000417551
0.0,-0.000815089
0.0,-0.00397298
0.0,-0.000653262
0.0,-0.000674955
0.0,-0.000423569
0.0,-0.000323416
0.0,-0.00116973
0.0,-0.000666646
0.0,-0.000536381
0.0,-0.00100609
0.0,-0.00163449
0.0,-0.00100837
0.0,-0.00135105
0.0,-0.00195427
0.0,-0.00212472
0.0,-0.00149483
0.0,-0.0020836
0.0,-0.000715927
0.0,-0.000516001
0.0,-0.00502417
0.0,-6.53953e-05
0.0,-0.00115919
0.0,-0.000389033
0.0,-0.00131863
0.0,-0.000747244
0.0,-0.00108585
0.0,-0.00151139
0.0,-0.00232992
0.0,-0.000989379
0.0,-0.000640176
0.0,-0.00061202
0.0,-0.00109022
0.0,-0.00148229
0.0,-0.000497353
0.0,-0.00393459
0.0,-0.000957867
0.0,-0.00107323
0.0,-0.00061141
0.0,-0.000672679
0.0,-0.000541007
0.0,-0.000481999
0.0,-0.00343156
0.0,-0.00128517
0.0,-0.00067206
0.0,-0.00103948
0.0,-0.000670629
0.0,-0.00112156
0.0,-0.000338973
0.0,-0.00059312
0.0,-0.000581788
0.0,-0.00404794
0.0,-0.0009122
0.0,-0.00060758
0.0,-0.000892199
0.00181818,-0.000613714
0.00222222,-0.000614353
0.00285714,-0.00062469
0.01,-0.00133754
0.016,0.0133949
0.016,-0.0031358
0.016,-0.00212895
0.016,-0.00177422
0.019375,-0.00343737
0.02,-0.00222523
0.024,-0.00236619
0.024,-0.00170966
0.024,-0.00183998
0.024,-0.00260012
0.024,-0.00237515
0.024,-0.00187242
0.0243333,-0.00158507
0.0297619,-0.00143093
0.0297619,-0.00143093
0.0313,-0.00132251
0.0313,-0.0014842
0.032,-0.00196213
0.036,-0.00147335
0.04,-0.00159874
0.04,-0.00234738
0.04,-0.00195908
0.04,-0.00423741
0.04,-0.00213544
0.04,-0.00192767
0.04,-0.00244049
0.04,-0.0024496
0.04,-0.00227227
0.042,-0.0102852
0.0420875,-0.00163074
0.043,-0.00150429
0.0465574,-0.000937748
0.048,-0.00223545
0.048,-0.00335941
0.048,-0.00236872
0.048,-0.00183449
0.048,-0.00188888
0.048,-0.00244371
0.048,-0.0040269
0.05,-0.00129308
0.05,-0.00178162
0.0533333,-0.00102275
0.056,-0.00231135
0.056,-0.00205092
0.06,-0.00158554
0.06,-0.00160017
0.06,-0.00226873
0.0606061,-0.00147887
0.064,-0.00289144
0.064,-0.00223734
0.064,-0.0022963
0.064,-0.00179931
0.064,-0.00212409
0.0664,-0.00239303
0.0664,-0.00299506
0.07,-0.00151881
0.07,-0.00274779
0.07,-0.00256086
0.072,-0.00261508
0.072,-0.0023276
0.072,-0.00203
0.072,-0.00197164
0.0720721,-0.00121584
0.075,-0.00163683
0.075,-0.00180598
0.08,-0.0145549
0.08,-0.0053518
0.08,-0.00129159
0.08,-0.0011445
0.08,-0.00173482
0.08,-0.00103289
0.08,-0.00184077
0.08,-0.00181818
0.08,-0.00192236
0.085,-0.0027211
0.088,-0.00271762
0.088,-0.00207446
0.088,-0.00267881
0.088,-0.00281454
0.088,-0.00201801
0.088,-0.00167037
0.088,-0.0016978
0.088,-0.00216
0.088,-0.00286596
0.088,-0.00659843
0.088,-0.00276765
0.09,-0.00162265
0.093,-0.00283681
0.0933333,-0.00142037
0.096,-0.00342738
0.096,-0.00249376
0.096,-0.00278333
0.096,-0.00278297
0.096,-0.0031405
0.1,-0.00149979
0.1,-0.00149912
0.1,-0.00204634
0.1,-0.0012974
0.1,-0.00396173
0.1,-0.00149912
0.1,-0.00109896
0.1,-0.00149912
0.1,-0.00220016
0.1,-0.00149979
0.1,-0.00207605
0.104,-0.00215157
0.11039,-0.00290226
0.112,-0.00149159
0.112,-0.00246339
0.112,-0.00234262
0.112,-0.00652567
0.112,-0.00220874
0.117,-0.00128715
0.12,-0.00201479
0.12,-0.00231438
0.12,-0.00154383
0.12,-0.00165518
0.12,-0.00105754
0.12,-0.00232921
0.124,-0.00307593
0.125,-0.00396563
0.128,-0.00228319
0.128,-0.0029637
0.132143,-0.00258747
0.133333,-0.00202204
0.136,-0.00176885
0.142,-0.00136104
0.142857,-0.00288238
0.144,-0.00183325
0.144,-0.00212925
0.144,-0.00180519
0.144,-0.00242447
0.144,-0.00224994
0.144,-0.00115869
0.144,-0.00552448
0.144,-0.0019058
0.144,-0.00121975
0.144,-0.00193476
0.144,-0.00197557
0.144,-0.00463793
0.144,-0.00211979
0.148,-0.00417364
0.15,-0.004354
0.15,-0.00178955
0.15,-0.0032867
0.15,-0.00151919
0.151333,-0.00417356
0.151333,-0.00422545
0.152,-0.0026325
0.153333,-0.00365159
0.15875,-0.00360641
0.159091,-0.00252808
0.16,-0.00351351
0.16,-0.00374504
0.16,-0.00198973
0.16,-0.00212504
0.16,-0.0018868
0.16,-0.0022803
0.16,-0.0011131
0.16,-0.00111642
0.16,-0.0011423
0.16,-0.00140468
0.16,-0.00290477
0.16,-0.00470689
0.16,-0.00259841
0.16,-0.00248862
0.161,-0.00111902
0.166667,-0.00650446
0.166667,-0.00117538
0.166667,-0.00155893
0.166667,-0.00143969
0.17,-0.00603144
0.17,-0.00211134
0.172,-0.00123471
0.172414,-0.00138937
0.173333,-0.00415251
0.176,-0.0024344
0.178,-0.00121649
0.178,-0.00130778
0.178,-0.00130822
0.178,-0.0012202
0.178,-0.00135203
0.178788,-0.00114394
0.18,-0.00198023
0.18,-0.00214862
0.18,-0.00228034
0.18,-0.00299741
0.18,-0.00277701
0.18,-0.00298979
0.181339,-0.00218879
0.183908,-0.00106805
0.189394,-0.00221903
0.189394,-0.00209987
0.189394,-0.00212318
0.189394,-0.00212318
0.1894,-0.00178899
0.19008,-0.00927959
0.191667,-0.00126909
0.192,-0.00262798
0.192,-0.00461252
0.192,-0.00261453
0.192,-0.00260794
0.2,-0.00187674
0.2,-0.00156713
0.2,-0.00149574
0.2,-0.00657946
0.2,-0.00120823
0.2,-0.0064088
0.2,-0.00109094
0.2,-0.00126711
0.2,-0.00127159
0.2,-0.00105337
0.2,-0.00143599
0.2,-0.0019642
0.2,-0.00122332
0.2,-0.00346681
0.2,-0.00315574
0.2,-0.00123083
0.2,-0.00306836
0.2,-0.0035694
0.2,-0.00139746
0.2,-0.00130456
0.2,-0.00276529
0.2,-0.00130006
0.2,-0.00161861
0.2,-0.00178347
0.2,-0.00350555
0.2,-0.00484595
0.2,-0.00438612
0.2,-0.00409336
0.2,-0.00163575
0.2,-0.00647014
0.2,-0.00124437
0.2,-0.00194584
0.2,-0.00241625
0.2,-0.00657414
0.2,-0.00242605
0.2,-0.00289984
0.2,-0.0011642
0.2,-0.00304829
0.2,-0.00331335
0.2,-0.0020277
0.2,-0.00122421
0.2,-0.00291517
0.2,-0.00135758
0.2,-0.00596128
0.2,-0.00670842
0.2,-0.00124161
0.2,-0.00172463
0.2,-0.00128452
0.2,-0.00139302
0.2,-0.00240995
0.207,-0.00137243
0.21,-0.00257831
0.213333,-0.00114934
0.215,-0.00260276
0.22,-0.00118211
0.22,-0.00516466
0.224,-0.00373287
0.224,-0.00370222
0.228,-0.00100967
0.23,-0.00434384
0.237,-0.00137425
0.24,-0.00190167
0.24,-0.00125453
0.24,-0.00224332
0.24,-0.00332724
0.24,-0.0019307
0.24,-0.00193296
0.24,-0.00371363
0.24,-0.00270578
0.240024,-0.00374115
0.244966,-0.0033949
0.244966,-0.00166834
0.244966,-0.00136198
0.244966,-0.00156316
0.244966,-0.00212918
0.244966,-0.00297916
0.244966,-0.00145475
0.244966,-0.00180498
0.245,-0.00393053
0.246,-0.00143247
0.248,-0.00197872
0.25,-0.00360967
0.25,-0.00236077
0.25,-0.00133447
0.25,-0.00754819
0.25,-0.00474159
0.25,-0.00267385
0.25,-0.00194359
0.256,-0.00177034
0.256,-0.00809717
0.256,-0.0021836
0.26,-0.00140476
0.26,-0.010336
0.26,-0.00258984
0.26,-0.00225901
0.26,-0.00124206
0.27,-0.00346459
0.27,-0.00313914
0.28,-0.00334426
0.28,-0.00213565
0.28,-0.00332657
0.28,-0.00275879
0.284394,-0.0029997
0.286,-0.00136381
0.29,-0.00173455
0.292,-0.00310879
0.293231,-0.0013232
0.299963,-0.0030469
0.3,-0.00423221
0.3,-0.00129949
0.3,-0.00629923
0.3,-0.00147353
0.3,-0.0012853
0.3,-0.00108309
0.3,-0.00128981
0.3,-0.0016118
0.3,-0.00135904
0.3,-0.00377967
0.3,-0.00178118
0.3,-0.00691955
0.3,-0.00160647
0.3,-0.00135601
0.3,-0.00691955
0.3,-0.00183333
0.3,-0.00357082
0.3,-0.00360341
0.3,-0.00106736
0.3,-0.00130977
0.3,-0.00219019
0.3,-0.00117435
0.3,-0.00119683
0.3,-0.00381789
0.3,-0.00129855
0.3,-0.00103336
0.3,-0.00353235
0.303951,-0.00714137
0.31,-0.00337477
0.311111,-0.00207085
0.3125,-0.00151247
0.314,-0.00123612
0.32,-0.00151134
0.32,-0.00137901
0.32,-0.00125503
0.32,-0.00159873
0.32,-0.00148991
0.32,-0.00409499
0.32,-0.00143971
0.32,-0.00117699
0.32,-0.00217263
0.32,-0.00152104
0.32,-0.00421006
0.323967,-0.00140529
0.324333,-0.00127625
0.324333,-0.00122244
0.327,-0.00106475
0.33,-0.0016362
0.33,-0.00093507
0.33,-0.00163366
0.333333,-0.000917694
0.333333,-0.000924593
0.333333,-0.00416956
0.333333,-0.000888737
0.334783,-0.00118432
0.336,-0.00133657
0.336,-0.00169498
0.336,-0.00133702
0.34,-0.00133524
0.34,-0.00125825
0.34,-0.00124761
0.34,-0.00124973
0.34,-0.00121915
0.34,-0.00113719
0.34,-0.00130993
0.342,-0.00161053
0.35,-0.00251631
0.35,-0.0017556
0.35,-0.00334519
0.351958,-0.00333695
0.36,-0.00268539
0.36,-0.00245854
0.36,-0.00248512
0.36,-0.00233404
0.36,-0.00177907
0.360036,-0.00319679
0.363,-0.00109383
0.364286,-0.00120616
0.372,-0.00209075
0.372,-0.002285
0.372,-0.00184933
0.373333,-0.00213021
0.381679,-0.00143759
0.384,-0.00122187
0.384,-0.00150282
0.384,-0.00119084
0.384061,-0.00231082
0.388,-0.00387545
0.388,-0.00387346
0.4,-0.0027441
0.4,-0.000841255
0.4,-0.0249607
0.4,-0.00114719
0.4,-0.00115097
0.4,-0.00138481
0.4,-0.00872207
0.4,-0.000936798
0.4,-0.000887891
0.4,-0.00126374
0.4,-0.00100116
0.4,-0.00112854
0.4,-0.00129561
0.4,-0.00126315
0.4,-0.00161305
0.4,-0.00284177
0.4,-0.00564747
0.4,-0.00326226
0.4,-0.00754475
0.4,-0.00151582
0.4,-0.0010491
0.4,-0.00120155
0.4,-0.00155539
0.4,-0.00323083
0.4,-0.00100499
0.4,-0.0023486
0.4,-0.00103512
0.4,-0.00105261
0.4,-0.00159565
0.4,-0.00131532
0.4,-0.000969555
0.4,-0.00303969
0.4,-0.00303241
0.4,-0.00156239
0.4,-0.0030709
0.4,-0.00133374
0.4,-0.00101269
0.4,-0.00158535
0.4,-0.00100651
0.4,-0.00369143
0.4,-0.00641695
0.4,-0.00103099
0.412,-0.00503492
0.415385,-0.00106461
0.416,-0.00107616
0.418,-0.0011368
0.42,-0.00196108
0.42,-0.00205232
0.42,-0.00262189
0.42,-0.00290054
0.43,-0.00107078
0.432,-0.00115996
0.432,-0.00154958
0.439216,-0.00228741
0.44,-0.00180157
0.442,-0.00492313
0.448,-0.00335679
0.45,-0.00364323
0.45,-0.003464
0.45,-0.00338109
0.45,-0.00247026
0.45,-0.0065971
0.45,-0.00237105
0.45,-0.00336883
0.452632,-0.00179319
0.454,-0.00200646
0.45625,-0.00205311
0.46,-0.00122059
0.46,-0.00096705
0.462,-0.00156801
0.47,-0.000801822
0.479904,-0.00227418
0.48,-0.00220865
0.48,-0.00308878
0.48,-0.00333528
0.48,-0.00204862
0.48,-0.00300386
0.48,-0.00413682
0.485437,-0.00258235
0.488889,-0.00269453
0.488889,-0.00269453
0.493298,-0.00236301
0.49597,-0.0023765
0.49597,-0.00251606
0.5,-0.0012825
0.5,-0.00153468
0.5,-0.00280952
0.5,-0.00113801
0.5,-0.00505474
0.5,-0.00114879
0.5,-0.00145289
0.5,-0.00223412
0.5,-0.00282547
0.5,-0.00140708
0.5,-0.00101355
0.5,-0.00103426
0.5,-0.000939893
0.5,-0.000960223
0.5,-0.00140708
0.5,-0.00140708
0.5,-0.00204921
0.5,-0.000882723
0.5,-0.00276803
0.5,-0.00134841
0.5,-0.00200091
0.5,-0.00562682
0.50104,-0.00106962
0.50152,-0.00108208
0.50752,-0.00109103
0.507614,-0.00123016
0.507614,-0.00123972
0.50784,-0.00255286
0.511836,-0.00290539
0.512,-0.00221067
0.512,-0.001712
0.512,-0.00148551
0.515464,-0.00124382
0.52,-0.00229884
0.52,-0.00220406
0.52,-0.00103917
0.520833,-0.00290415
0.520833,-0.00247729
0.528053,-0.00151876
0.52872,-0.000981442
0.53,-0.000792868
0.533333,-0.00115594
0.533333,-0.0014994
0.533333,-0.00815144
0.54,-0.0158612
0.54,-0.00289034
0.542005,-0.000716575
0.542005,-0.000712425
0.543848,-0.00359973
0.55,-0.000765253
0.55,-0.00161541
0.551724,-0.018586
0.559832,-0.00144728
0.559832,-0.00187034
0.56,-0.000874584
0.56,-0.000853238
0.56,-0.000922402
0.571429,-0.00235919
0.575,-0.000919943
0.575,-0.000985191
0.575,-0.00143453
0.575,-0.000825671
0.58,-0.00280459
0.581818,-0.00527274
0.587,-0.00179352
0.588,-0.00107476
0.599747,-0.00136944
0.6,-0.00383904
0.6,-0.00123984
0.6,-0.0011448
0.6,-0.00123984
0.6,-0.00236933
0.6,-0.00492484
0.6,-0.00213954
0.6,-0.00207788
0.6,-0.000590023
0.6,-0.000944221
0.6,-0.000827742
0.6,-0.00142294
0.60024,-0.00129522
0.60024,-0.000929375
0.608041,-0.00308674
0.62,-0.00191805
0.62,-0.00213209
0.62,-0.00203739
0.62,-0.00223525
0.633,-0.00168123
0.633,-0.00168123
0.64,-0.00303993
0.64,-0.000976955
0.64,-0.00315096
0.655738,-0.00351856
0.663415,-0.00227686
0.666667,-0.00110854
0.666667,-0.000637114
0.67,-0.000652331
0.67,-0.000667572
0.68359,-0.00112286
0.685714,-0.00266609
0.69,-0.00864737
0.7,-0.00112046
0.7,-0.000917136
0.7,-0.00299706
0.7,-0.00112409
0.7,-0.00289092
0.707,-0.00134783
0.72,-0.0021209
0.72,-0.00229321
0.723404,-0.00192091
0.73,-0.000541385
0.736,-0.0016093
0.75,-0.00195148
0.752381,-0.00159176
0.753,-0.00203003
0.755556,-0.00152908
0.757576,-0.000804575
0.757576,-0.00112366
0.757576,-0.000712778
0.767754,-0.0017776
0.8,-0.000357901
0.8,-0.000483872
0.8,-0.00132714
0.8,-0.00892007
0.8,-0.000466986
0.8,-0.00073865
0.8,-0.00073865
0.8,-0.00165167
0.8,-0.000366103
0.8,-0.000435214
0.8,-0.000221915
0.8,-0.00186334
0.8,-0.000383938
0.8,-0.00297006
0.8,-0.000381948
0.8,-0.00345685
0.8,-0.000366103
0.8,-0.00372965
0.8,-0.00294598
0.8,-0.00300828
0.8,-0.00411647
0.8,-0.000812379
0.8,-0.00928817
0.8,-0.000932136
0.81,-0.00191111
0.816049,-0.000276722
0.816049,-0.00032244
0.831601,-0.00159033
0.833333,-0.00200193
0.867925,-0.00140554
0.87037,0.000456691
0.873,-0.0015849
0.88,-0.00931982
0.88,-0.00931982
0.9,-0.00136548
0.9,-0.00119135
0.913,-0.00108409
0.92,-0.00157505
0.93,3.88619e-05
0.93,-0.000146613
0.93,-0.000146613
0.93,2.8484e-05
0.95,-0.000843686
0.957,-0.00103453
0.972222,-0.00902005
0.99,-0.000153171
0.995,0.000123686
1.0,0.00474814
1.0,-2.06257e-05
1.00115,-0.000136977
1.00694,-0.000199397
1.00928,-0.000141157
1.03333,-0.000159995
1.04,-0.00103897
1.04,-0.000997095
1.05,0.000233715
1.05,0.000235695
1.0625,-0.0105393
1.07,-0.000115555
1.07,-8.59311e-05
1.073,-0.000929874
1.1,-0.016846
1.13942,-0.0175413
1.157,-0.000677359
1.2,-0.00011055
1.22727,0.0329496
1.25,0.00160121
1.25,-0.00295265
1.25,3.58975e-05
1.3,-0.00388023
1.3,-0.00313272
1.31,0.000673891
1.425,0.0445241
1.44,0.00296927
1.52,0.00104367
1.52,0.00162166
1.52,0.00194596
1.6,-0.000137077
1.6,0.00224748
1.6,0.0109294
1.6,0.0109294
2,-0.00457748
2,-0.00615878
2,-0.000973421
2.0,0.0608729
2.0,0.0780652
2.0,0.0442926
2.0,0.0648719
2.0,0.0477582
2.0,0.0369873
2.0,0.0649329
2.07059,-0.00815854
2.17647,0.0196498
2.2,0.0210038
2.4024,-0.00843227
2.45333,0.0808497
2.48889,0.0795973
2.8,0.00747659
2.8,0.0074744
3,0.0506946
3.2,0.0173046
3.2,0.0126923
3.2,0.00804989
5.0,0.00684444
6.4,0.00771512
6.4,0.00782432
8,0.00359866
8,0.00532771
8.2,0.00426553
9.63855,0.000401573
18.0,-0.0202552
26.5714,0.00351036
358.4,0.00538764
358.4,0.00522818