File: KFI-RHO-LTA-UFI_paper/dependence_plot_data/RHO_NaSi.csv
Na/Si,SHAP value
0.0,-0.000287794
0.0,-0.000235403
0.0,-0.000340682
0.0,-0.000306333
0.0,-0.000281099
0.0,-0.00025572
0.0,-0.000266645
0.0,-0.000287794
0.0,-0.000187013
0.0,1.48015e-05
0.0,-0.000763238
0.0,-0.000358272
0.0,-0.000118784
0.0,-0.000443696
0.0,-0.000153728
0.0,-0.00045472
0.0,1.2977e-06
0.0,-0.000329809
0.0,-0.000116609
0.0,-0.000544592
0.0,-0.000209487
0.0,-0.000529801
0.0,-0.00043795
0.0,-0.000289537
0.0,-0.000252315
0.0,-0.000698792
0.0,-0.000136912
0.0,-0.000563665
0.0,-6.68375e-05
0.0,-0.000374555
0.0,-0.000229687
0.0,-0.000109145
0.0,-2.37919e-05
0.0,-1.01701e-07
0.0,-0.000153728
0.0,-0.0001576
0.0,-0.00039074
0.0,-0.000175523
0.0,-1.27897e-05
0.0,-0.000294052
0.0,-0.000237617
0.0,-0.000185056
0.0,-0.000425256
0.0,-0.000311784
0.0,-7.08884e-05
0.0,-0.00169556
0.0,-0.000214038
0.0,-0.000166273
0.0,-0.000314397
0.0,-0.00196334
0.0,-0.000164784
0.0,-1.26952e-05
0.0,-0.000843303
0.0,-0.00035783
0.0,-0.000754316
0.0,-0.000167971
0.0,-0.000560589
0.0,-0.000783174
0.0,-0.000602892
0.0,-5.17514e-05
0.0,-0.000345597
0.0,-0.000134578
0.0,-0.000266839
0.0,-0.000185198
0.0,-0.000222981
0.0,-0.000501827
0.0,-2.29284e-06
0.0,-0.00045472
0.0,-5.52131e-06
0.0,-0.00125283
0.0,-0.00154071
0.0,-0.000567643
0.0,-5.17514e-05
0.0,-0.000257113
0.0,-0.000206044
0.0,-0.000656952
0.0,-0.000267685
0.0,-0.000279844
0.0,-0.000644212
0.0,-0.000415224
0.0,-0.00057975
0.0,-0.000737961
0.0,-0.00011689
0.0,-0.000249615
0.0,-0.000282204
0.0,-0.000448556
0.0,-0.000161717
0.0,-0.000141746
0.0,-0.000208309
0.0,-0.000428898
0.0,-0.000258277
0.0,-0.000148931
0.0,-0.000215546
0.0,-0.00106484
0.0,-9.33339e-05
0.0,-0.000304585
0.0,-0.000257891
0.0,-0.000223025
0.0,-0.000314923
0.0,-0.000303898
0.0,0.000195089
0.0,-0.000293583
0.0,-0.000557363
0.0,-0.000336306
0.0,-0.000282184
0.0,-0.000106037
0.0,-0.000441629
0.0,-4.36721e-05
0.0,-2.70634e-06
0.0,-0.000287461
0.0,-0.000306925
0.0,-0.000810106
0.0,-4.72499e-05
0.0,-1.40196e-05
0.0,-0.000206663
0.0,-0.000906365
0.0,-0.000114139
0.0,-0.000170205
0.0,-0.000331227
0.0,-0.000661531
0.0,2.64429e-05
0.0,-0.000101941
0.0,-0.000858793
0.0,-0.000381209
0.0,-0.000190317
0.0,-0.000322258
0.0,-0.000469486
0.0,-0.000745053
0.0,-0.000416145
0.0,0.000312449
0.0,-0.000908038
0.0,0.000917634
0.0,-6.21381e-05
0.0,-0.000127172
0.0,-0.000292075
0.0,-0.000449685
0.0,-6.92295e-05
0.0,-0.0001021
0.0,-0.000302153
0.0,-0.000432598
0.0,-0.000292484
0.0,-0.000207557
0.0,-0.000302955
0.0,0.000142289
0.0,-0.000130861
0.0,-0.000204413
0.0,-0.000987998
0.0,5.5484e-05
0.0,-0.000305688
0.0,-0.000231796
0.0,-0.000234356
0.0,-0.000225697
0.0,-9.74144e-05
0.0,-0.000921124
0.0,-2.77977e-05
0.0,-0.000300568
0.0,-0.000281576
0.0,-0.000502897
0.0,-0.000344333
0.0,-0.000516459
0.0,-0.000146402
0.0,-0.000183886
0.0,-0.00026194
0.0,-0.000308653
0.0,-0.00065051
0.0,-0.000464652
0.0,0.000174485
0.0,-9.98143e-05
0.0,-0.000228435
0.0,-0.000637148
0.0,-0.000136
0.0,-0.000442366
0.0,-0.000353893
0.0,-0.000105017
0.0,-0.000743344
0.0,-0.000457702
0.0,-5.34913e-06
0.0,-0.000220899
0.0,-0.000164784
0.0,-0.000397408
0.0,-0.000273584
0.0,-0.000634352
0.0,-1.2011e-05
0.0,-0.000233277
0.0,-0.00040214
0.0,-0.000237617
0.0,-0.000423862
0.0,-0.000220035
0.0,-8.64579e-05
0.0,-0.000436543
0.0,-0.000515158
0.0,-0.000258005
0.0,-0.000842676
0.0,-0.000657462
0.0,-0.00076942
0.0,-0.0064213
0.0,-0.000695629
0.0,-0.00041426
0.0,-0.000441487
0.0,-0.000131601
0.0,-0.000392958
0.0,-0.0196746
0.0,-0.000816579
0.0,-3.97807e-05
0.0,-0.000150874
0.0,-0.000314602
0.0,-0.00119294
0.0,-0.000512864
0.0,-0.00052921
0.0,-0.000452636
0.0,-0.000241076
0.0,-0.000698789
0.0,-0.00204001
0.0,3.31759e-05
0.0,-0.000448579
0.0,-0.000636576
0.0,-0.000213335
0.0,-0.000170724
0.0,-0.000171091
0.0,-0.00190496
0.0,-0.000441629
0.0,-0.00233715
0.0,-0.000415931
0.0,-0.000406983
0.0,-0.000202291
0.0,-0.000131729
0.0,-0.0004898
0.0,-6.17783e-05
0.0,-0.000529107
0.0,-0.000695629
0.0,-0.000572244
0.0,-7.68286e-05
0.0,-0.000854799
0.0,-0.000410411
0.0,-0.000154951
0.0,-0.000151208
0.0,3.55806e-05
0.0,-0.000283965
0.0,-0.000124068
0.0,-0.00013644
0.0,-0.000164784
0.0,-7.06659e-05
0.0,-0.000398951
0.0,-0.00013369
0.0,-0.000815269
0.0,-0.000195426
0.0,4.23008e-05
0.0,-0.000369651
0.0,-0.0003575
0.0,-5.52326e-06
0.0,-0.000663949
0.0,-0.000210554
0.0,-0.000419992
0.0,-0.000214991
0.0,-0.000645604
0.0,-0.00021988
0.0,-2.17076e-05
0.0,-0.000644285
0.0,-0.000136577
0.0,-0.00106347
0.0,-0.000541371
0.0,-0.000188823
0.0,-0.000893864
0.0,-0.0197984
0.0,-0.000258005
0.0,-6.82909e-05
0.0,-0.000613249
0.0,-0.000701394
0.0,-0.000244873
0.0,-0.000697557
0.0,-0.000208596
0.0,-0.00018914
0.0,-0.000676322
0.0,-0.000581695
0.0,-0.000208586
0.0,-0.000326552
0.0,-0.000257891
0.0,-0.000411475
0.0,-0.00041426
0.0,-0.000755783
0.0,-8.98853e-05
0.0,1.55873e-05
0.0,-0.000239324
0.0,-0.000923991
0.0,1.0285e-05
0.0,-0.000429491
0.0,-0.000288761
0.0,-0.000131652
0.0,-0.000758785
0.0,-9.56097e-05
0.0,-0.000425385
0.0,-0.000133095
0.0,3.38766e-05
0.0,-0.000225861
0.0,-0.000573217
0.0,-0.000134773
0.0,-5.46837e-05
0.0,-0.000400284
0.0,-0.000374463
0.0,-0.000119874
0.0,-0.000230087
0.0,-0.000226395
0.0,-5.17303e-05
0.0,-0.000526613
0.0,-0.000122317
0.0,-0.000146569
0.0,-0.000860643
0.0,-0.000679337
0.0,-0.000327363
0.0,-0.000122668
0.0,-0.00079691
0.0,-0.000927049
0.0,-0.000122375
0.0,-0.000808384
0.0,-0.000340682
0.0,-0.0003962
0.0,-7.54749e-06
0.0,-0.000247954
0.0,-0.000770667
0.0,-0.000433457
0.0,-0.000194486
0.0,-0.000155671
0.0,-0.000643913
0.0,-0.000489916
0.0,-0.000647141
0.0,-0.000397119
0.0,-0.00031413
0.0,-0.00064478
0.0,-0.000744592
0.0,-7.87325e-05
0.0,-0.000563449
0.0,-0.000139062
0.0,-0.000222946
0.0,-0.000314453
0.0,-0.000167678
0.0,-0.000851442
0.0,-0.000167079
0.0,-0.000218882
0.0,-0.000216127
0.0,-0.000251533
0.0,-0.000340682
0.0,-0.000315474
0.0,0.00022784
0.0,-0.000461504
0.0,-0.000585102
0.0,-0.000185743
0.0,-3.08363e-05
0.0,-0.000239541
0.0,0.000161858
0.0,-0.000518216
0.0,-0.000131652
0.0,-0.000645068
0.0,-0.000228905
0.0,-0.000182412
0.0,-0.000314602
0.0,-0.000431791
0.0,-0.000172603
0.0,-0.00044085
0.0,-0.000326227
0.0,-0.00010506
0.0,-0.00082806
0.0,-0.000244793
0.0,-0.000258916
0.0,-0.000274308
0.0,-0.000447195
0.0,-0.00196334
0.0,-0.000909116
0.0,-0.00055624
0.0,-0.00142293
0.0,-0.00113701
0.0,-0.000319579
0.0,-0.000220551
0.0,-0.000257389
0.0,-0.000485945
0.0,-0.00023293
0.0,-0.000199325
0.0,-0.00049894
0.0,-0.000156949
0.0005,-1.38888e-05
0.002,-6.99415e-06
0.004,0.000143518
0.008,0.000252204
0.0084,0.000527395
0.01,0.000275428
0.0124103,8.70284e-05
0.0125,0.000259437
0.0133333,0.000313955
0.01575,0.000139021
0.018,0.000156443
0.0188235,0.000220291
0.02,0.000322311
0.02,0.000160726
0.02,0.000379375
0.02,0.000266049
0.02,0.000321911
0.02,0.000315425
0.02,0.00026342
0.02,0.000319284
0.02,0.000317286
0.0220513,0.000311143
0.022069,0.000248371
0.0227273,0.000168597
0.0240385,0.000277925
0.0243333,0.000330969
0.0243333,0.000330969
0.025,0.000151985
0.025,0.000343664
0.025,9.18968e-05
0.025,0.000171151
0.0261438,0.000246953
0.028,0.000101344
0.029,0.000402064
0.0294,0.000363077
0.03,0.000241747
0.03,0.000512344
0.03,0.000384103
0.03,0.000221814
0.03,0.000367081
0.03,0.00033531
0.03,0.000281795
0.03,0.000356555
0.03125,0.000312962
0.0333333,0.000332518
0.0333333,0.000172759
0.04,0.000232108
0.04,0.000362604
0.04,0.000361751
0.04,0.000378771
0.043,0.00036686
0.046,0.00037103
0.046,0.00035451
0.05,0.000413933
0.05,0.000433243
0.05,0.000555169
0.05,0.000362455
0.05,0.000471124
0.05,0.000333338
0.05,0.000378107
0.05,0.000413933
0.05,0.000391408
0.05,0.000367717
0.05,0.000559274
0.05,0.000483563
0.056,0.00040607
0.06,0.000397718
0.06,0.000404365
0.06,0.000426495
0.06,0.00047417
0.06,0.000438136
0.06,0.000444296
0.06,0.000285274
0.0625,0.000209614
0.0625,0.000395184
0.0625,0.000392378
0.0625,0.000255823
0.0638298,0.000634908
0.0659341,0.000562434
0.066,0.000364384
0.0666667,0.000187941
0.07,0.000479004
0.07,0.000390811
0.07,0.000532123
0.0711111,0.000366828
0.0733333,0.000235925
0.075,-0.00305909
0.075,-0.00557405
0.075,-0.00145289
0.0788,0.000256361
0.08,0.000472067
0.08,0.000326772
0.08,0.000231819
0.08,0.000198464
0.08,0.000655282
0.08,0.000327047
0.08,0.000285345
0.08,0.000399221
0.08,0.000292511
0.08,0.00035614
0.08,-0.000122914
0.08,0.0004707
0.083,0.000982517
0.083,0.000608867
0.085,0.000566567
0.09,0.000662455
0.09,0.000884986
0.09,0.000467998
0.09,0.000484867
0.0901857,0.000367571
0.093,0.000718991
0.098,0.000807091
0.1,0.00101905
0.1,0.000668158
0.1,0.000916008
0.1,0.000590614
0.1,0.000961553
0.1,0.000816418
0.1,0.000866614
0.1,0.000866614
0.1,0.000664057
0.1,0.000669015
0.1,0.000741072
0.1,0.000661666
0.1,0.000890275
0.1,0.000553655
0.1,0.000737207
0.1,0.000774254
0.1,0.000598612
0.1,0.00118884
0.1,0.000529738
0.1,0.000597202
0.1,0.00064061
0.1,0.000831766
0.1,0.000983174
0.1,0.000527294
0.1,0.000457
0.1,0.000986784
0.1,0.000783792
0.1,0.00066537
0.1,0.001231
0.1,0.000735301
0.1,0.00117605
0.1,0.00110525
0.1,0.000939836
0.1,0.000977727
0.1,0.000944214
0.1,0.000500909
0.1,0.000541722
0.1,0.000511805
0.100671,0.000864723
0.100671,0.00105682
0.100671,0.000993022
0.100671,0.000652134
0.100671,0.000679405
0.100671,0.00115822
0.100671,0.000796527
0.100671,0.000895791
0.106,0.000779281
0.106667,0.000453501
0.11,0.00064398
0.11,0.000725443
0.11,0.000679894
0.11,0.000567501
0.11,0.000660695
0.11,0.000739979
0.11,0.000734418
0.11,0.0005744
0.11,0.000550137
0.11,0.000525239
0.11,0.000567501
0.111,0.000717375
0.114286,0.00134875
0.116667,0.00116384
0.117647,0.000606938
0.117647,0.00059128
0.12,0.000944288
0.12,0.000967682
0.12,0.00063793
0.12,0.000773402
0.12,0.00077826
0.12,0.000903875
0.12,0.000768064
0.13,0.000600783
0.13,0.000678793
0.133333,0.000433284
0.133333,0.000531227
0.134,0.000478184
0.134,0.000586464
0.136364,0.000641829
0.14,0.000679611
0.14,0.000483954
0.14,0.000769029
0.142857,0.000792589
0.15,0.000900196
0.15,0.00111442
0.15,0.000849319
0.15,0.000875999
0.15,0.000704176
0.15,0.000717499
0.15,0.000926065
0.15,0.00108872
0.15625,0.00067944
0.16,0.000851849
0.16,0.000740829
0.16,0.000786769
0.16,0.000439102
0.16,0.000863189
0.16,0.000760753
0.1646875,0.0466267
0.17,0.000596273
0.18,0.000418478
0.18,0.00122199
0.18,0.00111315
0.18,0.000800316
0.18,0.000849318
0.18,0.000769126
0.18,0.000797703
0.18,0.000601049
0.18,0.000784173
0.18,0.000808144
0.18,0.000604436
0.18,0.0007728
0.18,0.000600475
0.18,0.00076593
0.18,0.000775676
0.18,0.000561618
0.185,0.000627285
0.19,0.000865203
0.19,0.000664994
0.192308,0.000688519
0.2,0.0007289
0.2,0.000709223
0.2,0.000596176
0.2,0.000798641
0.2,0.000781716
0.2,0.000798641
0.2,0.000686517
0.2,0.000735701
0.2,0.000564774
0.2,0.00048274
0.2,0.000672343
0.2,0.000726996
0.2,0.000683863
0.2,0.000852319
0.2,0.000684272
0.2,0.000894623
0.2,0.000976292
0.2,0.000448919
0.2,0.000554601
0.2,0.000752487
0.2,0.000676042
0.2,0.000514296
0.2,0.000712874
0.2,0.000654183
0.2,0.000775825
0.2,-0.000104124
0.2,0.000699306
0.2,0.000563097
0.2,0.000740105
0.2,0.000740641
0.2,0.000806622
0.2,0.00081574
0.2,0.000448957
0.2,0.000454864
0.20625,0.000461754
0.21,0.000785842
0.21,0.000722637
0.216,0.00131016
0.22,0.00115879
0.22,0.00141248
0.22,0.000702107
0.22,0.000651585
0.22,0.000718174
0.22,0.001275
0.220022,0.000688663
0.222222,0.00077034
0.239,0.000637076
0.24,0.000789224
0.24,0.000790782
0.24,0.000621826
0.24,0.000674639
0.24,0.000797126
0.244706,0.000713462
0.246032,0.000821717
0.246032,0.000800314
0.25,0.000808563
0.25,0.000541421
0.25,0.000544864
0.25,0.000980155
0.25,0.000808694
0.25,0.000898665
0.25,0.00149654
0.25,0.000824652
0.26,0.000897081
0.266667,0.0016272
0.27,0.000869055
0.276667,0.000719487
0.276923,0.000952522
0.28,0.000911537
0.28,0.000936653
0.28,0.000769066
0.28,0.000640656
0.282,0.000744312
0.285,0.000889323
0.29697,0.000657066
0.3,0.000455316
0.3,0.000566783
0.3,0.000704315
0.3,0.00057759
0.3,0.00054131
0.3,0.0012895
0.3,0.000456175
0.3,0.000676741
0.3,0.000633195
0.3,0.00109201
0.3,0.000540202
0.3,0.000484248
0.3,0.000689865
0.3,0.000857435
0.3,0.000548835
0.3,0.000485264
0.3,0.00108746
0.3,0.000527289
0.3,0.000481078
0.3,0.000468446
0.3,0.000467785
0.3,0.000548352
0.3,0.000851373
0.3,0.000619632
0.31,0.00061739
0.32,0.0012261
0.32,0.000822692
0.32,0.00117234
0.328571,0.000604752
0.33,0.000616828
0.33,0.00100398
0.33,0.000565511
0.33,0.000777173
0.333333,0.000542426
0.333333,0.000914941
0.333333,0.000985029
0.333333,0.000729868
0.333333,0.000595584
0.348,0.000649682
0.35,0.000667515
0.35,0.00330985
0.35,0.00126168
0.35493,0.00080609
0.359971,0.000689737
0.36,0.000580992
0.36,0.000848626
0.36,0.0504059
0.36,0.0430346
0.365,0.000718988
0.369231,0.000431679
0.369231,0.000435898
0.379939,0.00167887
0.38,0.000728449
0.38,0.00080258
0.38,0.000616423
0.38,0.000894172
0.4,0.000434415
0.4,0.000527849
0.4,0.00055303
0.4,0.000554548
0.4,0.000706364
0.4,0.000305025
0.404959,-0.0030878
0.409091,0.000222387
0.409091,0.00019731
0.42,-0.000556722
0.42,-0.00659899
0.42,-0.000556722
0.42,-0.000556722
0.439947,0.000382952
0.45,0.000586824
0.45625,0.000435296
0.46,0.000449176
0.46,0.000334173
0.464972,0.000782619
0.466,0.000629253
0.466,0.000360671
0.466,0.00159057
0.466667,0.000397617
0.47,1.51305e-05
0.47,2.76451e-05
0.47,3.7812e-05
0.47,-7.67327e-06
0.47,4.70881e-05
0.47,4.64571e-05
0.472727,0.000212615
0.472727,0.000212615
0.48,0.00121388
0.48,-0.00602595
0.48,0.000441777
0.48,-0.00849671
0.48,-0.000329622
0.48,-0.00251166
0.485437,0.000566182
0.5,0.00102056
0.5,0.000321501
0.5,-4.65015e-05
0.5,0.000271252
0.5,0.000341665
0.5,0.000185736
0.5,0.00023518
0.5,0.000218615
0.5,0.000258599
0.52,0.000335129
0.52,-0.00606934
0.52,0.000896162
0.52,0.000848866
0.524843,0.00112438
0.524843,0.00118683
0.525,0.0013988
0.527778,0.000370872
0.527778,0.000297927
0.527778,0.000383742
0.529,0.000303499
0.529,0.000315794
0.529,0.000303408
0.529,0.000315702
0.533333,3.4906e-05
0.54,0.000248081
0.54,0.0001771
0.54,0.000304679
0.54,-0.0024974
0.54,0.00029953
0.542005,0.000436655
0.542005,0.000396989
0.542005,0.000396766
0.555556,0.000274183
0.5559,0.000113154
0.5559,0.000193624
0.56,-0.00178898
0.56,5.12994e-05
0.56,0.00017387
0.566667,0.000122057
0.571429,0.000267459
0.572,-2.01398e-05
0.574713,-8.88969e-05
0.57732,5.91286e-05
0.58,9.79897e-05
0.58,-0.0114968
0.58,9.59185e-05
0.588889,0.000160545
0.598232,-0.0024553
0.6,-5.1401e-05
0.6,0.000234451
0.6,-1.61181e-05
0.6,0.000238379
0.6,0.000715264
0.6,0.000187589
0.6,8.20143e-05
0.6,0.000245055
0.6,0.0001798
0.6,-0.00127838
0.6,1.3242e-05
0.6,0.00100951
0.6,-3.88325e-05
0.6,-6.01387e-05
0.6,-6.01387e-05
0.6,0.000143635
0.6,-0.000228992
0.6,-7.06572e-05
0.6,1.65526e-05
0.6,0.00011322
0.6,7.37817e-05
0.6,6.98194e-05
0.6,1.65526e-05
0.6,3.47565e-05
0.6,-5.2989e-05
0.6,-1.96305e-05
0.6,0.000108355
0.6,5.35553e-05
0.6,0.00169192
0.6,9.15225e-05
0.6,-4.30227e-05
0.6,-1.72262e-05
0.6,-3.88325e-05
0.601408,0.0560694
0.6269,5.71569e-05
0.6269,5.91831e-05
0.6344,5.97084e-05
0.64,5.41161e-05
0.64,-1.48888e-05
0.64,0.000117063
0.64,0.000114669
0.64,0.00017378
0.64,0.000844106
0.65,0.000208443
0.65,3.54965e-05
0.65,-0.00133625
0.6609,-2.42797e-06
0.666667,-0.00122459
0.7,-5.00974e-05
0.7,-6.70823e-05
0.7,-0.000196259
0.7,-7.13199e-05
0.7,-0.000162478
0.7,-0.000235859
0.704348,-0.000242021
0.712644,-0.000206937
0.716763,-0.000252283
0.72,-0.000314123
0.723404,-0.000260697
0.73,-0.000371258
0.73,-0.000372269
0.73,-0.000369311
0.73,-0.000371258
0.73,-0.000370867
0.73,-0.00021518
0.73,-0.000132454
0.73,-0.000370667
0.73,-0.000372554
0.73,-0.000409067
0.75,-5.16086e-05
0.77037,-0.000222192
0.77037,-0.000222192
0.78,-0.000305897
0.8,-0.000243483
0.8,-9.17685e-05
0.8,-9.91606e-05
0.8,-0.000122132
0.8,0.000102899
0.8,5.291e-06
0.8,-0.000187447
0.8,8.34614e-05
0.8,-0.000171812
0.809787,-0.000355205
0.829268,-0.00111981
0.833333,-0.000317619
0.833333,-0.000319342
0.841429,3.60687e-06
0.867925,-0.000276831
0.87,-0.000186013
0.87,-0.000210932
0.87037,-0.000269077
0.88,-0.00204432
0.88,-0.00204432
0.9,-0.00213974
0.92,-0.000778855
0.944444,-0.00477076
0.95,-0.000326666
0.959693,-0.00042155
0.967742,-0.000258248