File: KFI-RHO-LTA-UFI_paper/dependence_plot_data/RHO_OHSi.csv
OH/Si,SHAP value
0.0,0.00117155
0.0,0.000433383
0.0,0.00048989
0.0,0.000369388
0.0,0.000604186
0.0,0.000296449
0.0,0.000569916
0.0,0.000406753
0.0,0.00230329
0.0,0.000608731
0.0,0.000253794
0.0,0.00036397
0.0,0.000558005
0.0,0.000528655
0.0,0.000491044
0.0,0.000262592
0.0,0.000283653
0.0,0.000607813
0.0,0.000576043
0.0,0.000553266
0.0,0.000600232
0.0,0.000369526
0.0,0.00120394
0.0,0.000556033
0.0,0.000374615
0.0,0.000391392
0.0,0.000647846
0.0,0.000618802
0.0,0.000434061
0.0,0.000434221
0.0,0.00093231
0.0,0.000288727
0.0,0.000940356
0.0,0.000427023
0.0,0.000589197
0.0,0.00440847
0.0,0.00134557
0.0,0.000461507
0.0,0.000439096
0.0,0.000502813
0.0,0.0006084
0.0,0.000316395
0.0,0.000402012
0.0,0.000721613
0.0,0.000401541
0.0,0.000419937
0.0,0.000389906
0.0,0.000548425
0.0,0.00394673
0.0,0.000306526
0.0,0.000536554
0.0,0.000526325
0.0,0.00067334
0.0,0.000604371
0.0,0.000402494
0.0,0.00033747
0.0,0.000454234
0.0,0.000463827
0.0,0.000468154
0.0,0.000422293
0.0,0.000386545
0.0,0.000321285
0.0,0.000523018
0.0,0.000481699
0.0,0.000489501
0.0,0.000360711
0.0,0.00022797
0.0,0.000442791
0.0,0.000506069
0.0,0.000652307
0.0,0.00032412
0.0,0.000329333
0.0,0.000275992
0.0,0.000334885
0.0,0.000593682
0.0,0.00057134
0.0,0.000605191
0.0,0.000812338
0.0,0.000566671
0.0,0.00019507
0.0,0.00103874
0.0,0.000400406
0.0,0.000471877
0.0,0.000361854
0.0,0.000725234
0.0,-0.00024806
0.0,0.000341336
0.0,0.000576071
0.0,0.000391336
0.0,0.000564378
0.0,0.000693101
0.0,0.000644836
0.0,0.000496423
0.0,0.000493097
0.0,0.000468382
0.0,0.000625272
0.0,0.000453355
0.0,0.000382311
0.0,0.00067857
0.0,0.000645596
0.0,0.000730355
0.0,0.000493366
0.0,0.000376967
0.0,0.000599918
0.0,0.0423752
0.0,0.000890865
0.0,0.000641099
0.0,0.000402913
0.0,0.0224064
0.0,0.000223088
0.0,0.00047786
0.0,0.000638129
0.0,0.000537343
0.0,0.000439014
0.0,0.000598956
0.0,0.000536552
0.0,0.000694984
0.0,0.000250813
0.0,0.000600053
0.0,0.000433911
0.0,0.000559511
0.0,0.000665695
0.0,0.000654108
0.0,0.000476773
0.0,0.000396585
0.0,0.0375209
0.0,0.000699411
0.0,0.000299665
0.0,0.000432181
0.0,0.00145947
0.0,0.000496667
0.0,0.00118444
0.0,0.000540447
0.0,0.000934594
0.0,0.000459209
0.0,0.000482268
0.0,0.000269457
0.0,0.000546287
0.0,0.000377615
0.0,0.00042826
0.0,0.000684274
0.0,0.000508142
0.0,0.000505694
0.0,0.000416971
0.0,0.000371303
0.0,0.000399396
0.0,0.000425979
0.0,0.000520179
0.0,0.000505043
0.0,0.000209836
0.0,0.000568925
0.0,0.000453355
0.0,0.000451003
0.0,0.000508665
0.0,0.000557597
0.0,0.000630754
0.0,0.000869
0.0,0.000392515
0.0,0.00057317
0.0,0.00067718
0.0,0.00034823
0.0,0.00063875
0.0,0.000560354
0.0,0.000250886
0.0,0.00032412
0.0,0.000514716
0.0,0.000789922
0.0,0.000430486
0.0,0.0004379
0.0,0.000718363
0.0,0.00050459
0.0,0.000540227
0.0,0.000357059
0.0,0.000910933
0.0,0.000468692
0.0,0.000438085
0.0,0.000410622
0.0,0.000254192
0.0,0.00061725
0.0,0.000467228
0.0,0.000731087
0.0,0.000840566
0.0,0.00055812
0.0,0.000420096
0.0,0.000694409
0.0,0.000301171
0.0,0.000488306
0.0,0.000567819
0.0,0.000668473
0.0,0.000360437
0.0,0.000686111
0.0,0.00055687
0.0,0.000368573
0.0,0.000481602
0.0,0.000360711
0.0,0.000710737
0.0,0.00042298
0.0,-0.000598109
0.0,0.000596532
0.0,0.000623338
0.0,0.000595963
0.0,0.000388414
0.0,0.000434221
0.0,0.000393638
0.0,0.000566937
0.00181818,0.000317608
0.00222222,0.000317467
0.00285714,0.00031743
0.01,0.000358862
0.016,0.000502627
0.016,0.0003967
0.016,0.000333718
0.016,0.000418847
0.019375,0.00168315
0.02,0.0014029
0.024,0.000476097
0.024,0.000430692
0.024,0.000411697
0.024,0.000475779
0.024,0.000484657
0.024,0.000477307
0.0243333,0.000602039
0.0297619,0.000693471
0.0297619,0.000693471
0.0313,0.00051624
0.0313,0.000494783
0.032,0.000513746
0.036,0.000791838
0.04,0.000563249
0.04,0.00056764
0.04,0.000538118
0.04,0.000505701
0.04,0.000521333
0.04,0.000415617
0.04,0.000589461
0.04,0.000590343
0.04,0.000508809
0.042,0.000496693
0.0420875,0.000500636
0.043,0.000858669
0.0465574,0.0034551
0.048,0.00051116
0.048,-0.00149915
0.048,0.000496747
0.048,0.000516093
0.048,0.000503106
0.048,0.000497719
0.048,0.000496959
0.05,0.000963315
0.05,0.00077254
0.0533333,0.000831799
0.056,0.000510019
0.056,0.000390979
0.06,0.0519257
0.06,0.0507445
0.06,0.000676861
0.0606061,0.000569082
0.064,0.000529295
0.064,0.000538578
0.064,0.000504333
0.064,0.00048804
0.064,0.000470638
0.0664,0.000538414
0.0664,0.00053127
0.07,0.000346876
0.07,0.000109271
0.07,0.000220373
0.072,0.000106864
0.072,0.000122063
0.072,0.000110159
0.072,0.000102759
0.0720721,0.000129304
0.075,-0.00497683
0.075,-0.00619284
0.08,8.61938e-05
0.08,0.000234504
0.08,0.00030851
0.08,0.00066598
0.08,0.000204291
0.08,0.000671418
0.08,0.000220437
0.08,0.000155498
0.08,0.000157914
0.085,0.000142038
0.088,0.000115622
0.088,0.000146636
0.088,0.000114647
0.088,0.000147848
0.088,0.000117848
0.088,0.000204193
0.088,0.000189053
0.088,0.000130368
0.088,0.000128355
0.088,0.000119729
0.088,9.11874e-05
0.09,0.000138807
0.093,0.000139829
0.0933333,0.000549871
0.096,0.00022073
0.096,0.000155689
0.096,0.000166634
0.096,0.000127653
0.096,0.000284415
0.1,0.000225335
0.1,0.000225184
0.1,0.000111064
0.1,0.000386164
0.1,6.59824e-05
0.1,0.000225184
0.1,0.000253678
0.1,0.000225184
0.1,0.000651539
0.1,0.000225335
0.1,0.000300745
0.104,0.000107202
0.11039,0.000113961
0.112,0.000231644
0.112,9.92616e-05
0.112,8.59462e-05
0.112,8.83617e-05
0.112,0.000101555
0.117,0.000248191
0.12,2.69141e-05
0.12,0.0002119
0.12,0.000103827
0.12,1.74076e-05
0.12,0.000121241
0.12,-0.000139633
0.124,3.67882e-05
0.125,1.19947e-05
0.128,1.69465e-05
0.128,1.15306e-05
0.132143,7.1404e-05
0.133333,8.21687e-06
0.136,8.11023e-05
0.142,8.1175e-05
0.142857,5.48513e-05
0.144,0.000113062
0.144,4.79197e-05
0.144,9.29946e-05
0.144,5.45947e-05
0.144,4.19741e-05
0.144,0.000395922
0.144,-0.00255062
0.144,2.60829e-05
0.144,0.000364141
0.144,2.54611e-05
0.144,4.60878e-05
0.144,-0.000996249
0.144,4.28304e-05
0.148,7.44871e-05
0.15,-1.70556e-05
0.15,7.47296e-05
0.15,1.77272e-05
0.15,4.43461e-05
0.151333,6.50433e-05
0.151333,6.84935e-05
0.152,8.25211e-05
0.153333,2.47821e-05
0.15875,1.0622e-05
0.159091,3.50195e-05
0.16,7.11848e-05
0.16,-6.88641e-06
0.16,4.83001e-05
0.16,4.45273e-05
0.16,-3.09767e-06
0.16,8.99768e-06
0.16,-0.0003022
0.16,-0.000916984
0.16,-6.64219e-05
0.16,-0.000342446
0.16,0.000103465
0.16,-0.00151601
0.16,-6.00565e-05
0.16,-0.000293211
0.161,-0.000885798
0.166667,2.12616e-05
0.166667,-0.00027622
0.166667,-3.38987e-05
0.166667,-7.28922e-05
0.17,3.86961e-05
0.17,0.000104482
0.172,0.000123281
0.172414,0.000446818
0.173333,-0.00010943
0.176,2.27521e-06
0.178,4.49982e-05
0.178,0.000170416
0.178,0.000170416
0.178,-7.00383e-06
0.178,6.91872e-05
0.178788,4.49903e-05
0.18,6.13856e-05
0.18,8.54366e-05
0.18,8.57599e-05
0.18,6.68823e-05
0.18,-0.000669695
0.18,-0.000228672
0.181339,0.000105494
0.183908,0.000291739
0.189394,-2.54711e-05
0.189394,-3.32839e-05
0.189394,-3.3398e-05
0.189394,-3.3398e-05
0.1894,0.000532419
0.19008,-5.99647e-05
0.191667,0.000463605
0.192,9.2391e-06
0.192,-0.000978017
0.192,8.45417e-06
0.192,9.67133e-06
0.2,0.000100311
0.2,5.10728e-06
0.2,-1.34749e-05
0.2,-2.78778e-06
0.2,-0.000232362
0.2,4.63909e-05
0.2,1.27873e-05
0.2,-2.40699e-05
0.2,-0.000109826
0.2,-0.00021012
0.2,-0.000134925
0.2,-8.32298e-06
0.2,-0.00027247
0.2,0.000234403
0.2,5.05451e-05
0.2,-1.72242e-05
0.2,-3.23661e-06
0.2,-2.61153e-05
0.2,-0.000220145
0.2,-0.000109999
0.2,1.07193e-05
0.2,-2.42732e-05
0.2,-1.91433e-05
0.2,-0.000121632
0.2,-7.07271e-05
0.2,8.87637e-06
0.2,-3.10618e-05
0.2,3.2973e-05
0.2,4.03868e-05
0.2,5.65518e-06
0.2,7.77587e-05
0.2,7.74174e-06
0.2,-0.000535472
0.2,5.93902e-06
0.2,9.86064e-06
0.2,-0.000216801
0.2,-0.000696015
0.2,-5.37582e-05
0.2,-5.74062e-05
0.2,-0.000156831
0.2,-1.78089e-05
0.2,7.78303e-06
0.2,3.16082e-05
0.2,8.20644e-06
0.2,3.54984e-05
0.2,-8.51079e-05
0.2,4.35511e-05
0.2,-0.000186876
0.2,-0.000249588
0.2,-0.000534228
0.207,-2.6471e-06
0.21,0.000204026
0.213333,-0.000184278
0.215,-5.1323e-06
0.22,-9.76917e-05
0.22,1.95757e-06
0.224,-0.000109969
0.224,-2.1778e-05
0.228,-0.000148505
0.23,-7.64797e-05
0.237,1.33048e-05
0.24,-5.90409e-05
0.24,7.73458e-05
0.24,-6.44671e-05
0.24,-0.000530569
0.24,-5.25432e-05
0.24,-6.012e-05
0.24,-0.000318578
0.24,-9.5694e-05
0.240024,-0.000203055
0.244966,-7.61898e-05
0.244966,-2.17294e-05
0.244966,-0.000210781
0.244966,-0.000124109
0.244966,-9.01744e-05
0.244966,8.63182e-06
0.244966,-0.000223948
0.244966,-0.000115644
0.245,-4.40721e-06
0.246,2.73874e-05
0.248,4.18156e-05
0.25,-5.3101e-05
0.25,-1.30995e-05
0.25,-6.83569e-05
0.25,-5.34486e-05
0.25,-0.000131496
0.25,-3.49101e-05
0.25,-0.000109223
0.256,-0.000739096
0.256,-0.000526198
0.256,-8.81106e-05
0.26,-4.58103e-05
0.26,-1.9189e-05
0.26,0.00146014
0.26,-9.43133e-05
0.26,3.62312e-05
0.27,7.44198e-06
0.27,-3.90966e-06
0.28,-0.000121663
0.28,-8.6592e-05
0.28,0.00118429
0.28,-0.000142279
0.284394,0.000709563
0.286,1.54054e-05
0.29,4.35122e-05
0.292,-5.5886e-05
0.293231,-4.65497e-05
0.299963,-0.00270411
0.3,-6.90124e-05
0.3,-0.00012373
0.3,5.64852e-05
0.3,-0.000113035
0.3,-0.000884406
0.3,-0.000252337
0.3,-0.00165594
0.3,-0.000134843
0.3,2.09655e-05
0.3,2.56215e-05
0.3,2.6444e-05
0.3,0.00010699
0.3,7.3214e-05
0.3,-3.2461e-05
0.3,0.00010699
0.3,-5.52215e-05
0.3,-0.000252579
0.3,3.80404e-06
0.3,-0.000281325
0.3,-0.000630993
0.3,-7.60331e-05
0.3,-0.000166653
0.3,-0.000229978
0.3,-0.000253471
0.3,-0.000124038
0.3,-0.000395743
0.3,-0.000259235
0.303951,3.50896e-06
0.31,-6.74333e-05
0.311111,-0.000248499
0.3125,-8.7387e-05
0.314,-7.53612e-05
0.32,-0.000249988
0.32,-0.000515869
0.32,-0.000252664
0.32,-0.000266985
0.32,-0.000248999
0.32,-0.00232881
0.32,-0.000258575
0.32,-0.000380762
0.32,-0.000261815
0.32,-0.000261686
0.32,-6.83938e-05
0.323967,-0.00966725
0.324333,-0.000508774
0.324333,-0.000383063
0.327,-0.000133231
0.33,-6.18405e-05
0.33,-0.000399252
0.33,-6.31136e-05
0.333333,-9.94056e-05
0.333333,-0.00036728
0.333333,-0.000197967
0.333333,-0.00026304
0.334783,-0.000169511
0.336,-0.0121582
0.336,-0.00287512
0.336,-0.012149
0.34,-0.000210842
0.34,-0.000219216
0.34,-0.000219933
0.34,-0.000205775
0.34,-0.000222024
0.34,-0.000986722
0.34,-0.000220821
0.342,-0.00010536
0.35,-4.06479e-05
0.35,-9.80374e-05
0.35,0.000206611
0.351958,-5.68845e-05
0.36,0.000163909
0.36,0.000231192
0.36,0.000187322
0.36,0.00018123
0.36,-7.92406e-05
0.360036,-9.90377e-05
0.363,-0.000210803
0.364286,-0.000126812
0.372,-0.000100148
0.372,-0.000116759
0.372,-5.32386e-05
0.373333,0.000224078
0.381679,-0.000100153
0.384,-0.0121693
0.384,-0.00158199
0.384,-0.00623954
0.384061,-5.27156e-05
0.388,-3.77804e-05
0.388,-3.79353e-05
0.4,-4.03878e-05
0.4,-0.000191667
0.4,3.05188e-05
0.4,-0.00038815
0.4,-0.000257044
0.4,-0.00036185
0.4,-3.61501e-05
0.4,-0.000202392
0.4,-3.54521e-05
0.4,-0.000369932
0.4,-0.000216448
0.4,-0.000220228
0.4,-0.000217295
0.4,-0.000560341
0.4,-8.64608e-05
0.4,8.36331e-06
0.4,1.58731e-05
0.4,8.77027e-06
0.4,2.44293e-05
0.4,-9.2678e-05
0.4,-8.12397e-05
0.4,-0.000253801
0.4,-0.000113709
0.4,-0.000546921
0.4,-0.000198474
0.4,1.7597e-05
0.4,-0.000264744
0.4,-0.000197598
0.4,-9.74902e-05
0.4,-0.000452506
0.4,-5.82864e-05
0.4,-0.000132283
0.4,-0.00265063
0.4,-6.47568e-05
0.4,-0.000144204
0.4,-5.5602e-05
0.4,-0.000197362
0.4,-1.68835e-05
0.4,-0.000168966
0.4,-7.55507e-05
0.4,-2.34802e-05
0.4,-0.000254517
0.412,-5.57415e-05
0.415385,-0.00012989
0.416,-0.0122019
0.418,-0.000280154
0.42,-0.00020151
0.42,-0.00023384
0.42,-0.00174689
0.42,-3.11393e-05
0.43,-0.000271861
0.432,-0.00318415
0.432,-0.000662022
0.439216,-0.000580767
0.44,-0.000530085
0.442,-0.000112868
0.448,-5.10588e-05
0.45,-4.58822e-05
0.45,-4.51604e-05
0.45,-1.72657e-05
0.45,-0.00014982
0.45,-6.41996e-05
0.45,-0.000156805
0.45,-4.95344e-05
0.452632,-0.000268899
0.454,-4.94549e-05
0.45625,-0.000132852
0.46,-0.000450401
0.46,-0.00764005
0.462,-0.000584877
0.47,-0.000275788
0.479904,0.0003741
0.48,-1.7747e-05
0.48,-0.00174187
0.48,0.000554841
0.48,-5.22452e-05
0.48,-7.88333e-05
0.48,-0.000467594
0.485437,0.000445931
0.488889,-7.65381e-05
0.488889,-7.65381e-05
0.493298,0.000742288
0.49597,-0.000353299
0.49597,-0.000284812
0.5,-5.96958e-05
0.5,1.7601e-05
0.5,4.5968e-05
0.5,-0.00083117
0.5,1.39624e-05
0.5,-0.000357026
0.5,-5.97655e-05
0.5,0.00289992
0.5,-6.26975e-05
0.5,-5.35671e-05
0.5,-0.000382471
0.5,-0.000376525
0.5,-0.000199535
0.5,-0.000316977
0.5,-5.35671e-05
0.5,-5.35671e-05
0.5,0.000383367
0.5,-0.000325169
0.5,2.60848e-05
0.5,-0.000763785
0.5,-4.69685e-05
0.5,-6.28084e-06
0.50104,-0.000177851
0.50152,-0.000167869
0.50752,-0.000105739
0.507614,9.76463e-06
0.507614,9.76463e-06
0.50784,-0.000380965
0.511836,0.040006
0.512,0.000512756
0.512,0.000221696
0.512,0.000202696
0.515464,1.72068e-05
0.52,0.000672239
0.52,0.000724804
0.52,-0.000463099
0.520833,-6.7873e-05
0.520833,-4.56218e-05
0.528053,0.0023738
0.52872,4.02625e-05
0.53,-0.00021655
0.533333,-0.000391125
0.533333,2.52063e-06
0.533333,0.000351232
0.54,2.65635e-05
0.54,-0.000109216
0.542005,3.06698e-05
0.542005,2.95179e-05
0.543848,-0.0210104
0.55,-0.00038726
0.55,1.88007e-05
0.551724,-0.000136758
0.559832,-0.000321833
0.559832,0.000113298
0.56,-0.000256007
0.56,-0.000292625
0.56,-0.000249652
0.571429,-0.00012928
0.575,5.27287e-05
0.575,5.94838e-05
0.575,-0.000302546
0.575,-0.000496891
0.58,-0.000102204
0.581818,-0.000117647
0.587,-0.00019885
0.588,-0.000465054
0.599747,-9.73209e-05
0.6,-0.000163308
0.6,-0.000168055
0.6,-0.000147792
0.6,-0.000168055
0.6,-0.000319808
0.6,-0.000146152
0.6,-0.000350182
0.6,-0.000153341
0.6,-0.000494864
0.6,-4.98476e-05
0.6,4.45722e-05
0.6,-0.000198293
0.60024,-0.000487391
0.60024,-0.000573368
0.608041,-0.000152256
0.62,-0.000639723
0.62,-0.000830345
0.62,-0.000451418
0.62,-0.000392384
0.633,-0.000211057
0.633,-0.000211057
0.64,-0.00156384
0.64,-0.000162869
0.64,-0.00113557
0.655738,-0.00144511
0.663415,0.00328629
0.666667,-0.00115001
0.666667,-0.000360592
0.67,-0.000377935
0.67,-0.000292762
0.68359,-0.000355939
0.685714,-0.00175351
0.69,-0.000181757
0.7,-0.000332921
0.7,-0.000388839
0.7,-0.000172156
0.7,-0.000402437
0.7,-0.000178094
0.707,-0.000443736
0.72,-0.000265981
0.72,-0.000267704
0.723404,-0.000621876
0.73,-0.000520728
0.736,-0.00124671
0.75,-0.00055367
0.752381,-0.000537377
0.753,-0.000586775
0.755556,-0.00147878
0.757576,-0.000618827
0.757576,-0.000602154
0.757576,-0.000522722
0.767754,-0.000519405
0.8,-0.000442103
0.8,-0.000530961
0.8,-0.000522955
0.8,-0.000257638
0.8,-0.000518615
0.8,-0.000692274
0.8,-0.000692274
0.8,-0.00033545
0.8,-0.000365721
0.8,-0.000452037
0.8,-0.000424402
0.8,-0.000383444
0.8,-0.000448221
0.8,-0.000341302
0.8,-0.000448221
0.8,-0.000406279
0.8,-0.000365721
0.8,-0.00056114
0.8,-0.000649964
0.8,-0.000582771
0.8,-0.000445019
0.8,-0.000465368
0.8,-0.000530899
0.8,-0.000266472
0.81,-0.000195254
0.816049,-0.00115071
0.816049,-0.0011275
0.831601,-0.000463411
0.833333,-0.000548791
0.867925,-0.000439238
0.87037,-0.000307531
0.873,-0.000610294
0.88,-0.00115772
0.88,-0.00115772
0.9,-0.000303171
0.9,-0.000303616
0.913,-0.000434575
0.92,-0.000612098
0.93,-0.000412872
0.93,-0.000364007
0.93,-0.000364007
0.93,-0.000529846
0.95,-0.000437672
0.957,-0.00042397
0.972222,-0.000257304
0.99,-0.00022669
0.995,-0.000405107
1.0,-0.000476336
1.0,-0.00055691
1.00115,-0.00056224
1.00694,-0.000611791
1.00928,-0.000562224
1.03333,-0.000583622
1.04,-0.000627237
1.04,-0.00061883
1.05,-0.000247474
1.05,-0.000250647
1.0625,-0.000484202
1.07,-0.000447201
1.07,-0.000390092
1.073,-0.000426362
1.1,-0.000398292
1.13942,-0.000395538
1.157,-0.000433286
1.2,-0.000543355
1.22727,-0.000494037
1.25,-0.000407291
1.25,-0.000302147
1.25,-0.000459892
1.3,-0.000506113
1.3,-0.000449493
1.31,-0.000459596
1.425,-0.000491958
1.44,-0.000552526
1.52,-0.000529988
1.52,-0.00102136
1.52,-0.000502108
1.6,-0.000522163
1.6,-0.0011497
1.6,-0.000400815
1.6,-0.000400815
2,-0.000563778
2,-0.000484897
2,-0.000597565
2.0,-0.000351913
2.0,-0.000377689
2.0,-0.000554299
2.0,-0.000389787
2.0,-0.000498339
2.0,-0.000380469
2.0,-0.000380726
2.07059,-0.000563324
2.17647,-0.000522417
2.2,-0.000310392
2.4024,-0.00188883
2.45333,-0.000483131
2.48889,-0.000373241
2.8,-0.000627435
2.8,-0.000629644
3,-0.000536893
3.2,-0.000411116
3.2,-0.000310819
3.2,-0.00273786
5.0,-0.000727657
6.4,-0.00221916
6.4,-0.00274192
8,-0.000507801
8,-0.00138901
8.2,-0.000497231
9.63855,-0.00102279
18.0,-0.000517447
26.5714,-0.000481754
358.4,-0.000451113
358.4,-0.000391051