File: KFI-RHO-LTA-UFI_paper/dependence_plot_data/RHO_H2OSi.csv
H$_2$O/Si,SHAP value
0.0,0.00103893
0.0,0.000868105
0.0,0.00140422
0.0,0.000940858
0.0,0.000980417
0.0,0.000961099
0.0,0.000929931
0.0,0.00102748
0.0,0.000938569
0.0,0.000842465
0.0,0.000914297
0.0,0.000865286
0.0,0.000729909
0.0,0.00104253
0.0,0.00117215
0.0,0.000910576
0.0,0.00116411
0.0,0.000792139
0.0,0.00121394
0.0,0.00121582
0.0,0.000954824
0.0,0.00104494
0.0,0.000829164
0.0,0.0012277
0.0,0.00226032
0.0,0.000713988
0.0,0.00137009
0.0,0.000736497
0.0,0.000587833
0.0,0.00104253
0.0,0.00183854
0.0,0.00106959
0.0,0.000986615
0.0,0.00142403
0.0,0.00089542
0.0,0.00101147
0.0,0.00115364
0.0,0.000793257
0.0,0.000851002
0.0,0.000742152
0.0,0.000860099
0.0,0.000859928
0.0,0.000744208
0.0,0.00108204
0.0,0.00177416
0.0,0.000881734
0.0,0.000947085
0.17,0.00107576
0.318182,0.0010588
0.388889,0.00105888
0.45,0.00106762
0.614,0.0132552
1.0,0.00328632
1.06667,0.00153139
1.78,0.000868293
1.78,0.00089824
1.80072,0.00140173
2,0.00101428
2,0.000831354
2.04082,0.000737034
2.04082,0.00114338
2.079,0.000745796
2.10084,0.00110266
2.13333,0.00093037
2.23881,0.000832153
2.23881,0.000792103
2.5,0.000685756
2.5,0.00069852
2.5,0.000679791
2.5,0.000773135
2.85714,0.000975349
3,0.00098101
3,0.000925673
3,0.000721053
3.0,0.00084648
3.0,0.000798222
3.0,0.000886093
3.06,0.000922423
3.15,0.000817068
3.29997,0.000901444
3.29997,0.00103639
3.29997,0.00092218
3.29997,0.000795699
3.29997,0.00105084
3.3,0.000975539
3.3,0.000811994
3.5225,0.00158134
3.60144,0.000794569
3.86111,0.00120064
4,0.00231421
4.0,0.000695044
4.21053,0.00104423
4.47761,0.0007592
4.5,0.000902379
4.54545,0.00114614
4.54545,0.000836455
4.54545,0.00119835
4.54545,0.00101985
4.54545,0.000794798
4.62766,0.000639514
4.74716,0.000643096
4.74716,0.000647342
4.74716,0.000642799
4.78717,0.000826369
4.78723,0.000911538
4.78723,0.000642637
4.8006,0.000932844
4.84043,0.000700305
4.84043,0.000679343
4.89362,0.000937574
4.94681,0.000642488
4.94681,0.000641048
5,0.00147194
5,0.000654275
5,0.00101428
5,0.00116726
5,0.000900173
5,0.000897761
5,0.00096546
5,0.000846593
5,0.000737987
5,0.00074053
5,0.000963236
5,0.000769804
5,0.000738521
5,0.000941913
5.0,0.000999141
5.0,0.000659613
5.0,0.000954295
5.0,0.00119839
5.0,0.000716049
5,0.000677304
5,0.000787065
5,0.000846703
5,0.000774622
5,0.000810736
5,0.00138182
5,0.000878674
5,0.00092117
5,0.000964097
5,0.000664927
5,0.00116402
5,0.000812964
5.01636,0.000842809
5.10204,0.000877152
5.10204,0.000992688
5.16484,0.000851681
5.17857,0.000863122
5.19751,0.00103789
5.2521,0.000926687
5.33333,0.000879258
5.5,0.000874223
5.5,0.000784018
5.5,0.00071765
5.6,0.000756623
5.8,0.00132972
5.84307,0.000881374
5.9727,0.000846021
6,0.00104811
6,0.000763753
6.13333,0.000854624
6.25,0.00208057
6.33,0.00103209
6.5,0.000822334
6.66667,0.0014782
6.66667,0.00163497
6.8,0.000933457
7,0.0017046
7,0.000838871
7,0.00141478
7,0.00170594
7,0.00140602
7,0.00154588
7,0.00171477
7,0.00111016
7,0.0013164
7,0.00117882
7.2366,0.00991266
7.25,0.00173014
7.28,0.000797671
7.41667,0.000849163
7.5,0.00101399
7.5,0.000966772
7.5,0.000766973
7.5,0.000874546
7.68654,0.00971822
7.69992,0.00105502
7.69992,0.00107675
7.69992,0.00112806
7.69992,0.00104954
7.69992,0.00144741
7.75,0.000964504
7.89,0.00261135
8.18938,0.081603
8.3,0.00248064
8.5,0.00290455
8.75,0.00452799
8.788,0.00664932
8.9876,0.00455515
9.0,0.00173068
9.0,0.00455977
9.0,0.00487797
9,0.00510228
9.5,0.00316341
9.58333,0.0825046
9.8,0.000835883
9.8,0.000834877
9.87,0.00156857
10,0.00280139
10,0.000984505
10,0.00291085
10,0.00354201
10.0,0.00159
10.0,0.000815341
10.0,0.0214772
10.0,0.000781065
10.0,0.00334088
10.0,0.00094619
10.0,0.00195608
10.0,0.000996471
10.0,0.000775383
10.0,0.00585109
10.0,0.00166832
10.0,0.00143978
10.0,0.0677661
10.0,0.00343153
10.0,0.00509395
10.0,0.00116782
10.0,0.00159341
10.0,0.000955986
10.0,0.0010434
10.0,0.00291854
10.0,0.00092669
10.0,0.000789239
10.0,0.00372675
10.0,0.000896746
10.0,0.00114822
10.0,0.00334088
10,0.00485624
10,0.00364137
10,0.000917766
10,0.000794689
10,0.000802914
10.2041,0.000784132
10.395,0.00104659
10.5042,0.000598237
10.6061,0.000634124
10.6061,0.000679572
10.6061,0.000556355
10.6061,0.000758726
10.6061,0.000840229
10.6667,0.000975857
10.6667,0.000654812
10.6667,0.000859404
10.6667,0.000884758
10.6667,0.000519625
10.83,0.000556388
10.8911,0.0329468
11,0.00052792
11.0,0.000826755
11.0,0.000858134
11.2833,0.000856258
11.2833,0.000919649
11.47,0.000535108
11.6,-0.00112725
11.6,0.000677968
11.6,0.00019003
11.6977,0.00241952
11.8,0.000174628
11.8,0.000174306
12,0.000201522
12.0,0.000715914
12.0512,0.00396963
12.3457,0.000175394
12.3457,0.000175394
12.4375,3.51159e-05
12.6,0.000456636
12.6875,9.37295e-05
13,8.36885e-05
13.0,5.32849e-05
13,2.75086e-05
13,0.000128523
13.12,2.69668e-05
13.5,-0.000552816
13.5,-0.0081134
13.5,-0.00727436
13.5,-0.00199168
13.6459,-6.75523e-05
13.6459,0.000226306
14,-0.00048033
14,-0.00164273
14,0.000207743
14,-0.000249419
14,-0.000587308
14.0,0.000360618
14.0,-0.0060152
14.0,-0.000902295
14.0,-0.00255201
14,-0.000477382
14.1803,0.00109606
14.5,-8.47262e-05
14.7059,-0.000247583
14.8,-0.000551515
15,-0.000273314
15,-0.000210191
15,-0.000273314
15,-0.000175956
15,-0.000680757
15,-0.000121915
15,-0.000310273
15,-0.000319978
15,-0.000190143
15,-0.00019548
15,-0.000229239
15,-0.000306017
15,-0.000221351
15,-0.000214733
15,-0.00158003
15,-0.000319054
15,-8.67993e-05
15,-0.0002917
15.0,-0.000136215
15.0,-0.000434767
15.0,-5.28786e-05
15.0,-0.00024392
15.0,-0.000676302
15.0,-0.000279527
15.0,-0.000194125
15.0,-0.000620659
15.0,-0.000294363
15.0,-0.00024976
15.0,-0.000717913
15.0,-0.000205531
15.0,-0.000782206
15.0,-0.000180433
15.0,-0.000230054
15.0,-0.000712744
15.0,-0.000153148
15.0,-0.000178723
15.0,-0.000259416
15,-0.000233509
15,-0.00031456
15,-0.000258898
15,-0.000278825
15,-0.000723481
15,-0.000533283
15,-0.000253728
15.1515,-0.000300474
15.1515,-0.000284295
15.2,-0.000814857
15.5,-0.000239613
15.6,-0.000174152
15.7169,-0.000317864
15.8,-0.000606476
15.9259,-0.00112385
16.0,-0.00083518
16.0,-0.000591695
16.0,-0.000591695
16.0,-0.000783489
16.0,-0.000388886
16,-0.00593561
16,-0.000658622
16.1681,-0.00100812
16.2338,-0.00121368
16.4998,-0.000452371
16.4998,-0.000520423
16.4998,-0.000504429
16.4998,-0.000349614
16.4998,-0.000410774
16.4998,-0.000439013
16.6667,-0.00134429
16.6667,-0.00143238
16.6667,-0.000611427
16.6667,-0.000361672
16.6667,-0.000449924
16.6667,-0.000548191
16.6667,-0.000388285
16.6667,-0.000665931
16.6667,-0.000173567
16.6667,-0.000184005
16.6667,-0.000395403
17.1429,-0.00219754
17.765,-0.000392654
17.9,-0.00226055
17.9,-0.00326279
18.0,-0.00119813
18,-0.00111051
18,-0.00195894
19.2,-0.00052739
19.2,-0.000690691
19.2,-0.000595657
19.5,-0.000528508
19.5,-0.000534009
19.5,-0.000529244
19.5,-0.000527837
19.5,-0.000655859
19.5352,-0.00106039
20,-0.000580453
20,-0.000437682
20,-0.00058601
20,-0.000530424
20,-0.000701861
20,-0.000471153
20,-0.000708245
20,-0.000462504
20,-0.000531828
20,-0.000354883
20,-0.000451774
20,-0.000687918
20,-0.00057761
20,-0.00115983
20,-0.000503177
20,-0.000522794
20,-0.00109957
20.0,-0.00112014
20.0,-0.000538104
20.0,-0.00110182
20.0,-0.000545974
20.0,-0.000503703
20.0,-0.000804692
20.0,-0.000552214
20.0,-0.000723214
20.0,-0.00117384
20.0,-0.00107646
20.0,-0.00109078
20.0,-0.000568641
20.0,-0.000566436
20.0,-0.00070883
20.0,-0.00107558
20.0,-0.00070862
20.0,-0.000834991
20.0,-0.000545972
20,-0.000998687
20,-0.000555458
20,-0.00604194
20,-0.000494771
20,-0.000494771
20,-0.000562329
20,-0.000465078
20,-0.000582588
20,-0.000604674
20,-0.00117124
20,-0.000442492
20,-0.000504796
20.4,-0.00116873
20.4,-0.001235
20.4,-0.001235
20.7,-0.00136459
21,-0.00066997
21,-0.000526348
21,-0.000357284
21.135,-0.000583683
21.135,-0.00171063
21.16,-0.00060338
21.5686,-0.00159949
22,-0.000391461
22.2222,-0.000633252
22.2222,-0.000421975
22.5,-0.00136731
22.7273,-0.0005404
22.7273,-0.000550957
22.7273,-0.000608027
22.7273,-0.000641487
23.2759,-0.000792143
23.5,-0.000315971
23.5189,-0.000521372
23.6,-0.000764947
23.6,-0.000707024
23.6,-0.000615223
23.8095,-0.000694684
24.0,-0.00049954
24.0,-0.000725152
24.0625,-0.000632162
24.75,-0.00077152
24.7619,-0.000678802
25,-0.000819749
25,-0.000502766
25,-0.000810737
25,-0.00221227
25,-0.000643578
25,-0.00281522
25,-0.00103627
25,-0.000551629
25.0,-0.000656378
25.0,-0.000757547
25,-0.00130232
25,-0.000699801
25,-0.000725318
25,-0.000782076
25,-0.00189675
26.0,-0.000520917
26,-0.00105025
26,-0.00109196
26.4,-0.000725102
27.0,-0.000813627
27.0507,-0.00290702
27.7778,-0.000650362
27.9444,-0.000913749
28,-0.00115683
28,-0.00122458
28,-0.00111817
28.4,-0.000438182
29,-0.000562849
30,-0.000629491
30,-0.000501504
30,-0.00131792
30,-0.000725812
30,-0.000361678
30,-0.000564727
30,-0.000522603
30,-0.000639536
30,-0.000773091
30,-0.00053692
30,-0.000622613
30,-0.000668602
30,-0.000622202
30,-0.0005282
30,-0.000573035
30,-0.000595746
30,-0.000529225
30,-0.000572768
30,-0.000947403
30,-0.000707738
30,-0.000474509
30,-0.000704303
30,-0.000637153
30,-0.00080655
30,-0.000630976
30,-0.00075365
30,-0.000643729
30,-0.00073062
30,-0.000657221
30,-0.000581216
30,-0.000727438
30,-0.000659128
30,-0.000663601
30,-0.000759969
30,-0.000699317
30,-0.0010919
30,-0.000563699
30.0,-0.000667436
30.0,-0.000641073
30.0,-0.000570571
30.0,-0.00063336
30.0,-0.000622384
30.0,-0.000615029
30.0,-0.000981238
30.0,-0.000431007
30.0,-0.000499567
30.0,-0.00080655
30.0,-0.000726613
30.0,-0.00090667
30.0,-0.000361263
30.0,-0.000546944
30.0,-0.00105299
30.0,-0.000706256
30.0,-0.000564727
30.0,-0.000613024
30.0,-0.000537561
30.0,-0.000720365
30.0,-0.000527612
30.0,-0.000656302
30.0,-0.000611198
30.0,-0.000570393
30.0,-0.000691818
30,-0.000407651
30,-0.000492473
30,-0.000611275
30,-0.000630247
30,-0.000643199
30,-0.000639055
30,-0.000433896
30,-0.000669962
30,-0.0005422
30,-0.000701211
30,-0.000392898
30,-0.00252143
30,-0.000411903
30,-0.000643199
30,-0.000906928
30,-0.000827379
30,-0.000573475
30,-0.000509538
30,-0.000480969
30,-0.000580271
30,-0.000517582
30,-0.000541322
30,-0.000699317
30,-0.000470995
30,-0.000583151
30,-0.000597662
30,-0.000595734
30,-0.000705802
30,-0.000642415
30,-0.000618889
30,-0.000718339
30,-0.000527855
30,-0.000632504
30,-0.000662618
30.45,-0.000864324
31,-0.000543332
31,-0.000508001
31,-0.000489491
31.0,-0.00176571
31,-0.00154307
31.2,-0.00096682
31.2,-0.00066972
31.9333,-0.00130282
32.2667,-0.00584805
33.2,-0.000875948
33.2,-0.000883672
35,-0.000857692
35,-0.000973059
35,-0.000616067
35,-0.000933347
35,-0.000974447
35,-0.0010509
35,-0.000501103
35,-0.000581269
35,-0.000812799
35,-0.00107015
35,-0.000942523
35,-0.000942982
35,-0.000575413
35,-0.00145006
35,-0.000577522
35.0,-0.00110916
35.0,-0.000829692
35.0,-0.000481127
35.0,-0.000628348
35.0,-0.000791923
35.0,-0.00191825
35.0,-0.00191825
35,-0.00092894
35,-0.00102208
35,-0.000497035
35.04,-0.000567521
35.04,-0.00056803
35.1333,-0.000635482
35.3,-0.00211764
35.5333,-0.000757523
35.5625,-0.000639199
36,-0.000625689
36,-0.000625689
36,-0.000930729
36,-0.000910978
36,-0.000709175
36.0144,-0.000629234
36.7816,-0.000744867
37.1818,-0.000783931
37.182,-0.000657433
37.182,-0.000663875
37.182,-0.000732633
37.5,-0.000679907
37.5,-0.000865729
38,-0.000921371
38.0,-0.000913339
38.0711,-0.000558247
38.0711,-0.000558247
38.2759,-0.000512457
38.4124,-0.0006709
38.6127,-0.000611369
38.6598,-0.000562163
39.5833,-0.00346535
40,-0.000735585
40,-0.000572534
40,-0.000546441
40,-0.00141093
40,-0.000599384
40,-0.000749911
40,-0.000555757
40,-0.000514643
40,-0.000628382
40,-0.00147487
40,-0.00057178
40,-0.000922305
40,-0.000673882
40,-0.000564918
40,-0.000596956
40,-0.0014387
40,-0.000749545
40,-0.000600187
40,-0.000752331
40,-0.000489507
40,-0.000599941
40,-0.000460382
40.0,-0.000596956
40.0,-0.00694137
40.0,-0.00109887
40.0,-0.000539012
40.0,-0.000587734
40.0,-0.000563454
40.0,-0.000754378
40.0,-0.000596801
40.0,-0.000786599
40.0,-0.000642299
40.0,-0.000506493
40.0,-0.00261137
40.0,-0.00124625
40.0,-0.000783436
40.0,-0.000782146
40.0,-0.000564518
40.0,-0.00101787
40.0,-0.00112213
40.0,-0.000718086
40.0,-0.000628735
40.0,-0.00105549
40.0,-0.000484345
40.0,-0.000563454
40.0,-0.00112042
40.0,-0.000550561
40.0,-0.000458971
40.0,-0.000596956
40.0,-0.000493367
40.0,-0.000962642
40.0,-0.000717785
40.0,-0.00267291
40.0,-0.000542307
40.0,-0.000786599
40.0,-0.00118607
40,-0.000530169
40,-0.000526451
40,-0.000581179
40,-0.00141773
40,-0.00128225
40,-0.00289937
40,-0.000766732
40,-0.00167333
40,-0.00108788
40,-0.000551957
40,-0.000715531
40,-0.000602274
40,-0.00112201
40,-0.000651313
40,-0.000658489
40,-0.000808142
40,-0.00105714
40,-0.00117338
40,-0.000566509
40,-0.000570348
40,-0.0005171
40,-0.000651313
40,-0.000586679
40,-0.000488481
40,-0.000581179
40,-0.00116562
40,-0.000568219
40,-0.000606602
40,-0.00289937
40,-0.00128225
40,-0.00103518
40,-0.00055335
40,-0.000955929
40,-0.000747175
40,-0.000934402
40,-0.00085038
40.3297,-0.000421616
40.6,-0.00100295
40.84,-0.000735458
40.84,-0.000708828
40.8889,-0.00113985
41,-0.00410392
41.25,-0.000666621
41.5,-0.000777337
41.72,-0.00106754
42,-0.000586982
42,-0.000580542
42,-0.000424161
42,-0.000423274
42,-0.00055776
42,-0.000858636
42,-0.000534928
42.0,-0.000757856
42.0,-0.000847966
42.0,-0.000752482
42.0,-0.000838891
42.2,-0.000626462
42.3077,-0.000815486
42.35,-0.000735229
42.848,-0.00234763
42.848,-0.00223271
43.7584,-0.000840703
43.7584,-0.000947868
43.7584,-0.000700511
43.7584,-0.00130188
43.7584,-0.000662809
43.7584,-0.000675034
43.7584,-0.000771364
43.7584,-0.000677558
43.77,-0.000818206
44,-0.000936387
44,-0.000761574
44,-0.000678526
44.0,-0.000820221
44.0,-0.000716543
44.0,-0.000716543
44,-0.000858285
44,-0.000689075
44,-0.000605562
44.4444,-0.00102889
44.8845,-0.003096
45,-0.00104236
45,-0.00056337
45,-0.000623041
45,-0.0006037
45.0,-0.000729315
45.0,-0.000836918
45.0,-0.000863295
45.0,-0.000955903
45.0,-0.000607369
45,-0.000612377
45,-0.000705257
45,-0.000709985
45,-0.000672697
45,-0.00108533
45,-0.000592174
45,-0.000733168
45,-0.00051605
45.4545,-0.000647774
45.4545,-0.000958754
45.4545,-0.000842751
45.4545,-0.000958868
45.4545,-0.000892387
45.5,-0.000782076
45.5,-0.000970879
45.6665,-0.00135984
45.72,-0.00150673
45.8746,-0.00184337
46.6667,-0.00266766
46.6667,-0.0024202
48,-0.0007072
50,-0.000765364
50,-0.0011382
50,-0.000608798
50,-0.000985967
50.0,-0.00164199
50,-0.000730327
50,-0.0010513
50,-0.0011672
50,-0.00145424
50,-0.00115794
50,-0.000471243
50,-0.000581832
50,-0.00067776
50.9356,-0.000858633
52,-0.000777773
54,-0.000906616
54,-0.000771069
54.1667,-0.000801062
54.1667,-0.000719521
56.3725,-0.00110393
57,-0.00133085
57.2414,-0.00136639
58.3333,-0.00109559
58.6538,-0.00131717
58.8235,-0.000979988
60,-0.000642032
60,-0.000790784
60,-0.000791622
60,-0.000835782
60,-0.000761853
60,-0.00251363
60.0,-0.000891725
60,-0.000800405
60,-0.00269724
60,-0.000643957
62.2222,-0.00110626
62.5,-0.000890006
64,-0.00081284
65,-0.00141244
66.3636,-0.000611829
66.6667,-0.000921197
69.8,-0.00105479
75,-0.000820832
75,-0.000808038
76.9231,-0.00102113
80,-0.00068088
80,-0.000799181
83.3333,-0.000909585
85.0,-0.00142835
90.9091,-0.00144426
92,-0.000682465
95,-0.000737764
95,-0.00149167
98.9583,-0.000572979
100,-0.000953596
100,-0.0113919
100,-0.000633666
100.0,-0.0012518
100.0,-0.000985628
100.0,-0.00109104
100.0,-0.00115196
100.0,-0.000965029
100.0,-0.000783179
100.0,-0.00100285
100,-0.00602035
100,-0.00134178
100,-0.00118204
100,-0.010297
100,-0.00105256
110,-0.000548316
111.0,-0.000758657
116.0,-0.000817752
120.0,-0.00149265
125.0,-0.00092744
132.0,-0.000879852
136.036,-0.0027767
139.333,-0.000573937
161.765,-0.00134183
161.765,-0.00119372
174.0,-0.00103828
180.0,-0.000863698
200,-0.00108625
200,-0.000899426
200.0,-0.000904396
200,-0.00153512
240,-0.000518637
250,-0.000754405
400,-0.00173396
400,-0.000463372
400,-0.000632272
485.542,-0.00168108
555,-0.000578244
555,-0.000690293
714.286,-0.00107933