File: KFI-RHO-LTA-UFI_paper/dependence_plot_data/RHO_CsSi.csv
Cs/Si,SHAP value
0.0,-0.00495918
0.0,-0.0006679
0.0,-0.00231638
0.0,-0.000627311
0.0,-0.000706923
0.0,-0.00117129
0.0,-0.000879513
0.0,-0.000751856
0.0,-0.00165933
0.0,-0.00136703
0.0,-0.00066358
0.0,-0.000458377
0.0,-0.000634342
0.0,-0.000606467
0.0,-0.000461233
0.0,-0.00674203
0.0,-0.000615219
0.0,-0.0074996
0.0,-0.00815211
0.0,-0.000641939
0.0,-0.000707105
0.0,-0.0011419
0.0,-0.000620096
0.0,-0.000945573
0.0,-0.000457702
0.0,-0.00109724
0.0,-0.00152993
0.0,-0.000670494
0.0,-0.000654812
0.0,-0.00170139
0.0,-0.00129258
0.0,-0.0013426
0.0,-0.000886486
0.0,-0.000597058
0.0,-0.00187459
0.0,-0.000649316
0.0,-0.00036692
0.0,-0.00418096
0.0,-0.000966257
0.0,-0.000575644
0.0,-0.000629749
0.0,-0.00106445
0.0,-0.000972419
0.0,-0.000609275
0.0,-0.000871828
0.0,-0.00117705
0.0,-0.000500641
0.0,-0.000746158
0.0,-0.00133956
0.0,-0.000819712
0.0,-0.000474137
0.0,-0.00086359
0.0,-0.00288931
0.0,-0.000664985
0.0,-0.000853879
0.0,-0.000504282
0.0,-0.000620481
0.0,-0.000634608
0.0,-0.000947735
0.0,-0.000834339
0.0,-0.00330067
0.0,-0.000652637
0.0,-0.000822482
0.0,-0.00199299
0.0,-0.000595359
0.0,-0.000488755
0.0,-0.000609293
0.0,-0.000656595
0.0,-0.00128819
0.0,-0.000489453
0.0,-0.000778457
0.0,-0.000917539
0.0,-0.00084422
0.0,-0.000931863
0.0,-0.000638994
0.0,-0.00243014
0.0,-0.0012538
0.0,-0.000606152
0.0,-0.000612099
0.0,-0.000589688
0.0,-0.0145583
0.0,-0.010158
0.0,-0.000387488
0.0,-0.000684769
0.0,-0.000439005
0.0,-0.000617274
0.0,-0.00293027
0.0,-0.000619324
0.0,-0.00126701
0.0,-0.000756185
0.0,-0.000677897
0.0,-0.000985268
0.0,-0.000785895
0.0,-0.00152093
0.0,-0.00102826
0.0,-0.00196123
0.0,-0.00638179
0.0,-0.000641171
0.0,-0.00592024
0.0,-0.00087628
0.0,-0.00078207
0.0,-0.00299577
0.0,-0.000538514
0.0,-0.000899071
0.0,-0.000581411
0.0,-0.000671208
0.0,-0.000687354
0.0,-0.000472491
0.0,-0.000612045
0.0,-0.000694879
0.0,-0.000663735
0.0,-0.000383621
0.0,-0.000539897
0.0,-0.00196187
0.0,-0.00072199
0.0,-0.000668503
0.0,-0.00216423
0.0,-0.00064941
0.0,-0.000646022
0.0,-0.000644623
0.0,-0.00111594
0.0,-0.000592405
0.0,-0.0178637
0.0,-0.0013049
0.0,-0.00247011
0.0,-0.000554412
0.0,-0.000557035
0.0,-0.000643382
0.0,-0.000898008
0.0,-0.000783194
0.0,-0.00076805
0.0,-0.00136459
0.0,-0.000543914
0.0,-0.00131114
0.0,-0.000467453
0.0,-0.00058125
0.0,-0.000469875
0.0,-0.000659886
0.0,-0.000569139
0.0,-0.000693002
0.0,-0.000535457
0.0,-0.000935564
0.0,-0.000554606
0.0,-0.000942118
0.0,-0.0007629
0.0,-0.00136993
0.0,-0.00105212
0.0,-0.000593134
0.0,-0.000571993
0.0,-0.00106036
0.0,-0.00262126
0.0,-0.0007704
0.0,-0.00993811
0.0,-0.000498156
0.0,-0.000814238
0.0,-0.00154767
0.0,-0.000661734
0.0,-0.000527652
0.0,-0.000431707
0.0,-0.00638179
0.0,-0.000884023
0.0,-0.000505801
0.0,-0.000645334
0.0,-0.00056233
0.0,-0.0010729
0.0,-0.00100736
0.0,-0.000533311
0.0,-0.00162071
0.0,-0.000969501
0.0,-0.00055903
0.0,-0.00491731
0.0,-0.000571993
0.0,-0.000448111
0.0,-0.000477685
0.0,-0.000543262
0.0,-0.00094181
0.0,-0.00147277
0.0,-0.00156813
0.0,-0.000888689
0.0,-0.000752731
0.0,-0.000461233
0.0,-0.00110936
0.0,-0.000778499
0.0,-0.00122972
0.0,-0.00101521
0.0,-0.000660956
0.0,-0.000435735
0.0,-0.000554615
0.0,-0.000816481
0.0,-0.000370204
0.0,-0.0132568
0.0,-0.000581686
0.0,-0.000820303
0.0,-0.000685732
0.0,-0.000852911
0.0,-0.000663534
0.0,-0.00132354
0.0,-0.000485801
0.0,-0.00081224
0.0,-0.000562453
0.0,-0.00294894
0.0,-0.000659699
0.0,-0.000621553
0.0,-0.000571538
0.0,-0.00149002
0.0,-0.00138908
0.0,-0.00049242
0.0,-0.00121047
0.0,-0.00256764
0.0,-0.00109871
0.0,-0.00111877
0.0,-0.000609262
0.0,-0.000825998
0.0,-0.000609377
0.0,-0.000596566
0.0,-0.000435134
0.0,-0.000782025
0.0,-0.0122745
0.0,-0.000544099
0.0,-0.00104137
0.0,-0.000929001
0.0,-0.000615923
0.0,-0.00062744
0.0,-0.000436826
0.0,-0.0012584
0.0,-0.000569625
0.0,-0.000562042
0.0,-0.00062474
0.0,-0.000641776
0.0,-0.000602191
0.0,-0.000665189
0.0,-0.00249601
0.0,-0.000849067
0.0,-0.00196187
0.0,-0.000601204
0.0,-0.00294862
0.0,-0.000751856
0.0,-0.000629916
0.0,-0.000775517
0.0,-0.000631183
0.0,-0.00201771
0.0,-0.000531097
0.0,-0.000500267
0.0,-0.000649098
0.0,-0.000986117
0.0,-0.000518872
0.0,-0.000599019
0.0,-0.000596279
0.0,-0.00071865
0.0,-0.00514699
0.0,-0.000568492
0.0,-0.00195738
0.0,-0.000595928
0.0,-0.00126132
0.0,-0.00069289
0.0,-0.000554412
0.0,-0.000691057
0.0,-0.00127301
0.0,-0.000876029
0.0,-0.000546987
0.0,-0.000724978
0.0,-0.00167599
0.0,-0.00115134
0.0,-0.000904145
0.0,-0.00138946
0.0,-0.000563335
0.0,-0.00065066
0.0,-0.000993329
0.0,-0.00284699
0.0,-0.000589336
0.0,-0.000590233
0.0,-0.000943498
0.0,-0.000539311
0.0,-0.000594779
0.0,-0.0113605
0.0,-0.00243093
0.0,-0.000570519
0.0,-0.000971819
0.0,-0.00418493
0.0,-0.000833264
0.0,-0.000996904
0.0,-0.00117778
0.0,-0.00074432
0.0,-0.000655715
0.0,-0.000678209
0.0,-0.00064365
0.0,-0.000500385
0.0,-0.00056773
0.0,-0.000479407
0.0,-0.00274694
0.0,-0.0010334
0.0,-0.000479519
0.0,-0.00159789
0.0,-0.00089318
0.0,-0.0018437
0.0,-0.00130499
0.0,-0.000611805
0.0,-0.00105199
0.0,-0.0015114
0.0,-0.00166502
0.0,-0.000575296
0.0,-0.00054294
0.0,-0.00057041
0.0,-0.000700128
0.0,-0.000679717
0.0,-0.000564208
0.0,-0.00196154
0.0,-0.000607788
0.0,-0.000488177
0.0,-0.000729166
0.0,-0.000755863
0.0,-0.000868041
0.0,-0.000702396
0.0,-0.000838332
0.0,-0.00151256
0.0,-0.000867681
0.0,-0.000568428
0.0,-0.000562321
0.0,-0.000755953
0.0,-0.000668031
0.0,-0.00075863
0.0,-0.00118243
0.0,-0.000421121
0.0,-0.0182388
0.0,-0.000640701
0.0,-0.000920396
0.0,-0.00126464
0.0,-0.000570483
0.0,-0.00351423
0.0,-0.000935327
0.0,-0.000647639
0.0,-0.000596226
0.0,-0.000473813
0.0,-0.00072863
0.0,-0.00283922
0.0,-0.000656692
0.0,-0.00816117
0.0,-0.000738144
0.0,-0.000597362
0.0,-0.000814054
0.0,-0.00053632
0.0,-0.000702297
0.0,-0.000828238
0.0,-0.00283453
0.0,-0.000515623
0.0,-0.00112588
0.0,-0.000515328
0.0,-0.00516582
0.0,-0.000919506
0.0,-0.00117057
0.0,-0.00114261
0.0,-0.00256604
0.0,-0.00338991
0.0,-0.00101157
0.0,-0.0163165
0.0,-0.000672489
0.0,-0.00103131
0.0,-0.000622092
0.0,-0.00114162
0.0,-0.00104407
0.0,-0.00102234
0.0,-0.000833695
0.0,-0.00051923
0.0,-0.000567632
0.0,-0.00103656
0.0,-0.013238
0.0,-0.000644286
0.0,-0.00106036
0.0,-0.000717338
0.0,-0.000761139
0.0,-0.000703511
0.0,-0.000437217
0.0,-0.000673144
0.0,-0.000643318
0.0,-0.000890868
0.0,-0.00292412
0.0,-0.000674363
0.0,-0.000533062
0.0,-0.000525293
0.0,-0.000670073
0.0,-0.0010334
0.0,-0.000718578
0.0,-0.000975751
0.0,-0.000448353
0.0,-0.00136248
0.0,-0.000688914
0.0,-0.000509651
0.0,-0.0123779
0.0,-0.000656463
0.0,-0.000949234
0.0,-0.00069812
0.0,-0.000544976
0.0,-0.00159275
0.0,-0.000617142
0.0,-0.00086359
0.0,-0.000428746
0.0,-0.0116649
0.0,-0.000615659
0.0,-0.000946207
0.0,-0.000714374
0.0,-0.00146283
0.0,-0.00318954
0.0,-0.000653547
0.0,-0.000941269
0.0,-0.00076573
0.0,-0.000600534
0.0,-0.00105641
0.0,-0.000968621
0.0,-0.000917175
0.0,-0.000440243
0.0,-0.000900912
0.0,-0.000858832
0.0,-0.00370735
0.0,-0.000898875
0.0,-0.000664146
0.0,-0.000618665
0.0,-0.000583286
0.0,-0.00057401
0.0,-0.000941266
0.0,-0.000639319
0.0,-0.000732434
0.0,-0.00141556
0.0,-0.000675441
0.0,-0.000848132
0.0,-0.00464272
0.0,-0.00058517
0.0,-0.000560427
0.0,-0.000596279
0.0,-0.000404203
0.0,-0.00082342
0.0,-0.000640439
0.0,-0.000654414
0.0,-0.000714001
0.0,-0.000590233
0.0,-0.00957926
0.0,-0.000873544
0.0,-0.00283922
0.0,-0.00142978
0.0,-0.000471867
0.0,-0.000648213
0.0,-0.000734682
0.0,-0.00138036
0.0,-0.000911757
0.0,-0.00135071
0.0,-0.000709808
0.0,-0.000649344
0.0,-0.000556566
0.0,-0.00059778
0.0,-0.000415254
0.0,-0.000719555
0.0,-0.00113111
0.0,-0.000603245
0.0,-0.00113869
0.0,-0.000819717
0.0,-0.000618497
0.0,-0.000567103
0.0,-0.00295598
0.0,-0.000521484
0.0,-0.000558253
0.0,-0.0037945
0.0,-0.00529928
0.0,-0.000735463
0.0,-0.000588674
0.0,-0.000606692
0.0,-0.000837122
0.0,-0.000595597
0.0,-0.000563427
0.0,-0.00116302
0.0,-0.000671875
0.0,-0.00059163
0.0,-0.000646812
0.0,-0.000653864
0.0,-0.000917331
0.0,-0.00123182
0.0,-0.000553285
0.0,-0.0063457
0.0,-0.00276842
0.0,-0.000540607
0.0,-0.000564575
0.0,-0.000689545
0.0,-0.000645236
0.0,-0.0049261
0.0,-0.000688314
0.0,-0.000494722
0.0,-0.000979058
0.0,-0.000576242
0.0,-0.000480262
0.0,-0.000688226
0.0,-0.000453395
0.0,-0.000548843
0.0,-0.00127227
0.0,-0.00105481
0.0,-0.000731395
0.0,-0.000765048
0.0,-0.000705127
0.0,-0.000678237
0.0,-0.001794
0.0,-0.00169716
0.0,-0.000705888
0.0,-0.000549553
0.0,-0.0010525
0.0,-0.000639292
0.0,-0.000765643
0.0,-0.000943098
0.0,-0.00064002
0.0,-0.00132578
0.0,-0.00131264
0.0,-0.000900733
0.0,-0.000625046
0.0,-0.000752642
0.0,-0.000579101
0.0,-0.00113768
0.0,-0.00131657
0.0,-0.0010417
0.0,-0.000676679
0.0,-0.000555089
0.0,-0.000643385
0.0,-0.000461233
0.0,-0.000523429
0.0,-0.000534892
0.0,-0.000603468
0.0,-0.000439979
0.0,-0.000525101
0.0,-0.00072896
0.0,-0.000674615
0.0,-0.000541329
0.0,-0.000551973
0.0,-0.000891243
0.0,-0.000726015
0.0,-0.000520842
0.0,-0.000735314
0.0,-0.000650932
0.0,-0.000499126
0.0,-0.00292894
0.0,-0.000671806
0.0,-0.000474808
0.0,-0.000890885
0.0,-0.000665854
0.0,-0.000833909
0.0,-0.000735926
0.0,-0.00133881
0.0,-0.00114685
0.0,-0.000764081
0.0,-0.000820633
0.0,-0.000497316
0.0,-0.00174043
0.0,-0.000694313
0.0,-0.000650776
0.0,-0.00237654
0.0,-0.000472024
0.0,-0.000755987
0.0,-0.000396517
0.0,-0.00062692
0.0,-0.00055135
0.0,-0.000581702
0.0,-0.000480369
0.0,-0.000848692
0.0,-0.000607509
0.0,-0.000567226
0.0,-0.00133541
0.0,-0.000593311
0.0,-0.000908502
0.0,-0.000904571
0.0,-0.000867795
0.0,-0.000870011
0.0,-0.00699823
0.0,-0.0132948
0.0,-0.000587015
0.0,-0.00114704
0.0,-0.000916273
0.0,-0.000823995
0.0,-0.00115423
0.0,-0.000597881
0.0,-0.0176308
0.0,-0.000507571
0.0,-0.000514704
0.0,-0.000827412
0.0,-0.000599014
0.0,-0.00132542
0.0,-0.000634608
0.0,-0.000628237
0.0,-0.000575802
0.0,-0.000609044
0.0,-0.000617992
0.0,-0.000563559
0.0,-0.000591829
0.0,-0.00220849
0.0,-0.00065766
0.0,-0.000655733
0.0,-0.000668067
0.0,-0.000516066
0.0,-0.000425323
0.0,-0.000795687
0.0,-0.000506311
0.0,-0.000671246
0.0,-0.000468128
0.0,-0.00054283
0.0,-0.000761863
0.0,-0.00083042
0.0,-0.000436667
0.0,-0.00066509
0.0,-0.000662857
0.0,-0.000664373
0.0,-0.00056681
0.0,-0.000626411
0.0,-0.000834317
0.0,-0.00113585
0.0,-0.000660692
0.0,-0.000662961
0.0,-0.00067332
0.0,-0.000592342
0.0,-0.00131909
0.0,-0.00079076
0.0,-0.000692479
0.0,-0.000744577
0.0,-0.000670106
0.0,-0.000677895
0.0,-0.00121818
0.0,-0.00076986
0.0,-0.000700249
0.0,-0.00119947
0.0,-0.000825369
0.0,-0.000936212
0.0,-0.000821381
0.0,-0.000486491
0.0,-0.000608893
0.0,-0.000652818
0.0,-0.000843298
0.0,-0.000661421
0.0,-0.000671363
0.0,-0.00124069
0.0,-0.000777889
0.0,-0.00318004
0.0,-0.000545704
0.0,-0.000752557
0.0,-0.000658135
0.0,-0.00068646
0.0,-0.00071377
0.0,-0.00177009
0.0,-0.000672302
0.0,-0.0011301
0.0,-0.00318638
0.0,-0.000669991
0.0,-0.000546154
0.0,-0.000598076
0.0,-0.000713565
0.0,-0.00107637
0.0,-0.000862917
0.0,-0.000933263
0.0,-0.00290636
0.0,-0.0011994
0.0,-0.000734567
0.0,-0.00057334
0.0,-0.00528769
0.0,-0.000607571
0.0,-0.000584898
0.0,-0.00593063
0.0,-0.000843692
0.0,-0.00206609
0.0,-0.00236037
0.0,-0.000679738
0.0,-0.00147277
0.0,-0.000993046
0.0,-0.00069243
0.0,-0.000910303
0.0,-0.000743789
0.0,-0.000610249
0.0,-0.000578327
0.0,-0.00100006
0.0,-0.000558231
0.0,-0.000607461
0.0,-0.000553634
0.0,-0.000650765
0.0,-0.000743594
0.0,-0.000834317
0.0,-0.000851463
0.0,-0.00164491
0.0,-0.00176771
0.0,-0.000695877
0.0,-0.00303454
0.0,-0.000796056
0.0,-0.00070012
0.0,-0.00073711
0.0,-0.000584176
0.0,-0.000476115
0.0,-0.000685527
0.0,-0.000437224
0.0,-0.000786678
0.0,-0.000629423
0.0,-0.000825677
0.0,-0.000363867
0.0,-0.000564905
0.0,-0.00062367
0.0,-0.00203337
0.0,-0.000635021
0.0,-0.000441745
0.0,-0.00292388
0.0,-0.0215622
0.0,-0.000679201
0.0,-0.000497547
0.0,-0.000573339
0.0,-0.00069927
0.0,-0.00142302
0.0,-0.00103708
0.0,-0.00638179
0.0,-0.000462323
0.0,-0.000851812
0.0,-0.000689669
0.0,-0.0011171
0.0,-0.000640073
0.0,-0.00134361
0.0,-0.000868523
0.0,-0.000627943
0.0,-0.000629314
0.0,-0.000812037
0.0,-0.00165503
0.0,-0.0005947
0.0,-0.000781249
0.0,-0.000696789
0.0,-0.00154977
0.0,-0.00055645
0.0,-0.000614451
0.0,-0.00346188
0.0,-0.00249054
0.0,-0.000600486
0.0,-0.000472891
0.0,-0.000371655
0.0,-0.000844492
0.0,-0.000430641
0.0,-0.000740839
0.0,-0.000531982
0.0,-0.000546243
0.0,-0.00053106
0.0,-0.00260587
0.0,-0.00295612
0.0,-0.000698298
0.0,-0.000850116
0.0,-0.000751236
0.0,-0.00144457
0.0,-0.000962948
0.0,-0.000727365
0.0,-0.0062427
0.0,-0.00160837
0.0,-0.000525484
0.0,-0.00102131
0.0,-0.000671663
0.0,-0.000620923
0.0,-0.0158874
0.0,-0.00105481
0.0,-0.00150745
0.0,-0.00059203
0.0,-0.000548829
0.0,-0.000954534
0.0,-0.000593708
0.0,-0.000587015
0.0,-0.0139154
0.0,-0.000391287
0.0,-0.000555198
0.0,-0.000439979
0.0,-0.000957044
0.0,-0.000630701
0.0,-0.000728561
0.0,-0.00145521
0.0,-0.000685528
0.0,-0.000558519
0.0,-0.000473328
0.0,-0.000550525
0.0,-0.00161402
0.0,-0.000706454
0.0,-0.000834665
0.0,-0.000655249
0.0,-0.00720684
0.0,-0.00638179
0.0,-0.000591825
0.0,-0.000564508
0.0,-0.000389751
0.0,-0.000769812
0.0,-0.000562083
0.0,-0.000888133
0.0,-0.000535619
0.0,-0.00160993
0.0,-0.000869517
0.0,-0.000752642
0.0,-0.000531618
0.0,-0.000675454
0.0,-0.00135319
0.0,-0.00105641
0.0,-0.000926058
0.0,-0.000753188
0.0,-0.00283152
0.0,-0.0015825
0.0,-0.000851463
0.0,-0.000652592
0.0,-0.000674639
0.0,-0.000777889
0.0,-0.000633013
0.0,-0.000650593
0.0,-0.000469316
0.0,-0.000745935
0.0,-0.000577192
0.0,-0.00134745
0.0,-0.000568734
0.0,-0.000697856
0.0,-0.000448429
0.0,-0.000674415
0.0,-0.00111586
0.0,-0.000630201
0.0,-0.000514717
0.0,-0.00876155
0.0,-0.000710195
0.0,-0.000500546
0.0,-0.00055223
0.0,-0.0105388
0.0,-0.000971178
0.0,-0.000995825
0.0,-0.000772849
0.0,-0.000741551
0.0,-0.00117171
0.0,-0.0013325
0.0,-0.000841906
0.0,-0.000707204
0.0,-0.000620027
0.0,-0.000608438
0.0,-0.0011702
0.0,-0.000898111
0.0,-0.00070924
0.0,-0.000939392
0.0,-0.000538308
0.0,-0.000562067
0.0,-0.000479519
0.0,-0.00042952
0.0,-0.00569601
0.0,-0.000666591
0.0,-0.000548581
0.0,-0.000575318
0.0,-0.000525388
0.0,-0.00067298
0.0,-0.000620047
0.0,-0.000581758
0.0,-0.00500733
0.0,-0.000489321
0.0,-0.000670767
0.0,-0.00115945
0.0,-0.000527026
0.0,-0.000540655
0.0,-0.000604789
0.0,-0.00100887
0.0,-0.000611387
0.0,-0.000581702
0.0,-0.000739191
0.0,-0.000446235
0.0,-0.00142302
0.0,-0.00131372
0.0,-0.00151743
0.0,-0.000568182
0.0,-0.000647354
0.0,-0.000648862
0.0,-0.000478899
0.0,-0.000716982
0.0,-0.00183531
0.0,-0.00214632
0.0,-0.000547415
0.0,-0.000633092
0.0,-0.000556337
0.0,-0.00102052
0.0,-0.00832315
0.0,-0.000534658
0.0,-0.000499473
0.0,-0.000578837
0.0,-0.000975662
0.0,-0.000419741
0.0,-0.000587929
0.0,-0.000807513
0.0,-0.000734682
0.0,-0.000445838
0.0,-0.00113415
0.0,-0.000552376
0.0,-0.00136795
0.0,-0.000686674
0.0,-0.000855788
0.0,-0.000655219
0.0,-0.0020237
0.0,-0.000631548
0.0,-0.000867681
0.0,-0.000724753
0.0,-0.000494722
0.0,-0.00206336
0.0,-0.00088033
0.0,-0.000608204
0.0,-0.000853637
0.0,-0.000667494
0.0,-0.000677897
0.0,-0.000671838
0.0,-0.000541659
0.0,-0.000584486
0.0,-0.00465778
0.0290625,0.131928
0.0383877,0.141614
0.0594059,0.115927
0.06,0.0861357
0.06,0.0835739
0.06,0.0859541
0.0749906,0.0259643
0.1,0.020897
0.1,0.00690967
0.167,0.0028387
0.167,0.00415288
0.167,0.004147
0.167,0.0042675
0.2,0.00269615
0.33,0.00416131
0.333,0.00413874
0.333,0.00419314
0.333,0.00283128
0.333,0.00288975
0.333,0.00440034
0.5,0.00394149
0.5,0.00394149
0.5,0.00394663
0.5,0.00398133
0.5,0.00398133
0.5,0.00279184
4.0,0.00564694
8.0,0.00563964
16,0.00493608