File: KFI-RHO-LTA-UFI_paper/dependence_plot_data/RHO_Crystallization temp.csv
Crystallization temp,SHAP value
0.0,0.000479659
0.0,0.00156624
0.0,0.000531571
30.0,0.00082546
50.0,0.00247347
60.0,0.00460954
60.0,0.00312002
65.0,0.0024341
65.0,0.00207015
70.0,0.00168947
80.0,0.00257473
80.0,0.00281039
80.0,0.00104266
80.0,0.00162391
90.0,0.00212273
90.0,0.00129491
90.0,0.00403618
90.0,0.00212175
90.0,0.000294278
90.0,0.00403618
90.0,0.00109927
90.0,0.00215686
95.0,0.000920255
95.0,0.00182148
100.0,0.00210447
100.0,-0.002399
100.0,0.00454945
100.0,0.00122629
100.0,0.00271317
100.0,0.00390248
100.0,0.00082221
100.0,0.0133973
100.0,0.00180778
100.0,0.00056926
100.0,0.000745669
100.0,0.00210213
100.0,0.00129392
100.0,0.0010679
100.0,0.00338163
100.0,0.00238149
100.0,0.00103339
100.0,0.00450294
100.0,0.00469187
100.0,0.00092014
100.0,0.000775403
100.0,0.00519092
100.0,0.00540908
100.0,0.00069926
100.0,0.00112127
100.0,0.000790037
100.0,0.00224948
100.0,0.00104807
100.0,0.00135093
100.0,0.000606195
100.0,0.00110945
100.0,0.000726534
100.0,0.0551969
100.0,0.00224409
100.0,0.000964857
100.0,0.00257947
100.0,0.00112627
100.0,0.0145138
100.0,0.00114065
100.0,0.00195004
100.0,0.000606195
100.0,0.00152941
100.0,0.00195724
100.0,0.00105752
100.0,0.00570719
100.0,0.00475722
100.0,0.00104196
100.0,0.00209076
100.0,0.00112252
100.0,0.00127695
100.0,0.00224948
100.0,0.00125871
100.0,0.0025997
100.0,0.00238249
100.0,0.00115461
100.0,0.0047971
100.0,0.000793043
100.0,0.097294
100.0,0.000735805
100.0,-0.0225767
100.0,0.0011761
100.0,0.00157619
100.0,0.00105146
100.0,0.00285065
100.0,0.0012948
100.0,0.00148149
100.0,0.0120853
100.0,0.00216145
100.0,0.00086022
100.0,0.00110913
100.0,0.000946208
100.0,0.00107801
100.0,0.00225325
100.0,0.00115225
110.0,0.036178
110.0,-0.0016203
110.0,-0.00622101
110.0,-0.00584287
110.0,0.039795
110.0,-0.00626363
110.0,0.039501
110.0,-0.000667151
110.0,0.000920489
110.0,-0.00560547
110.0,0.00296084
110.0,0.0297218
110.0,-0.00399391
110.0,0.000559832
110.0,-0.000583315
110.0,-0.00179937
110.0,0.00140702
110.304,0.00129983
115.0,0.000883252
115.0,0.000771729
117.479,0.000871319
120.0,0.000710613
120.0,0.00071689
120.0,0.00036681
120.0,0.000285832
120.0,-0.000538578
120.0,0.000784461
120.0,0.000520513
120.0,0.000511371
120.0,0.000784461
120.0,0.000597936
120.0,0.000500347
120.0,0.000487042
120.0,0.000735131
120.0,0.000593761
120.0,0.000298488
120.0,0.000257169
120.0,0.00053294
120.783,0.000452841
125.0,0.0165187
125.0,8.07879e-05
125.0,-5.32784e-06
125.0,1.35842e-05
125.0,6.43942e-05
125.0,7.3487e-05
125.0,0.00021884
125.0,0.000269551
125.0,-8.98144e-05
130.0,0.000622254
130.0,0.00145731
130.0,0.000157223
130.0,0.000257646
130.0,0.00041883
130.0,4.9703e-05
130.0,0.000296954
130.0,0.000199806
135.0,0.000378849
135.0,0.000285509
135.0,0.000557496
135.0,6.47613e-05
135.0,-0.000671093
135.0,0.000134954
135.0,0.000132565
135.0,0.00015677
135.0,0.000100832
135.0,-4.08951e-05
135.0,-0.000102802
135.0,0.000491356
135.0,9.09345e-05
135.0,-0.00076235
135.0,4.81049e-05
135.0,0.000485945
135.0,-0.000129915
135.0,0.000207172
135.0,-0.000609471
135.0,0.000490356
135.0,-0.000274392
135.0,4.99104e-05
135.0,0.000155608
135.0,0.000225266
135.0,2.10849e-05
135.0,8.48332e-05
135.0,0.000116257
136.483,0.0001467
138.0,-9.77973e-05
140.0,0.000175361
140.0,0.000906463
140.0,-0.000239168
140.0,0.000572689
140.0,0.000167327
140.0,6.38215e-05
140.0,0.000308777
140.0,2.35999e-06
140.0,0.00016054
140.0,0.000368824
140.0,0.000129562
140.0,8.59905e-05
140.0,4.72979e-05
140.0,0.000347828
140.0,0.000906463
140.0,0.000156267
140.0,2.79157e-05
140.0,-0.000100336
140.0,0.000566187
140.0,0.000127999
140.0,0.000207815
140.0,-7.10806e-05
140.0,0.000108157
140.0,0.000154806
140.0,0.000108359
140.0,4.20421e-05
140.0,0.000108359
140.0,9.84901e-05
140.0,0.000251539
140.0,5.61548e-05
140.0,5.6307e-05
140.0,0.000175361
140.0,3.9927e-05
140.0,2.02781e-05
140.0,3.21707e-05
140.0,0.000108922
140.0,0.000150256
140.0,0.000162997
140.0,0.00051215
140.0,7.69227e-05
140.0,0.000181082
140.0,0.000132011
140.0,2.79157e-05
140.0,0.000728935
140.0,-7.53329e-05
140.0,3.73839e-05
140.0,-2.0486e-05
140.0,-0.000548609
140.0,0.000145919
140.0,0.0011357
140.0,-0.000538325
140.0,-0.00067701
140.0,-0.000707902
140.0,0.03971
140.0,0.000119245
140.0,8.90176e-05
140.0,0.000175361
140.0,0.000906358
140.0,0.000155705
140.0,0.000170649
140.0,7.62814e-05
140.0,6.59579e-05
142.5,-0.000398723
142.5,-0.000292341
142.5,-0.000422511
142.5,-0.000167394
142.853,-0.000422716
145.0,-0.000160979
145.0,-0.000193253
145.0,-0.000170777
145.0,-0.000207579
145.0,-0.000325547
145.734,-0.000382198
150.0,-0.000482064
150.0,-0.000160573
150.0,-0.000188524
150.0,-0.000739769
150.0,-0.000244076
150.0,-0.000163383
150.0,-0.000217792
150.0,-0.00031912
150.0,-0.00023877
150.0,-0.000328709
150.0,-0.000285677
150.0,-0.000356987
150.0,-0.000367975
150.0,-0.000146075
150.0,-0.000671733
150.0,-0.00032536
150.0,-0.000384634
150.0,-0.000484997
150.0,-0.00103072
150.0,-0.000812915
150.0,-0.000130755
150.0,-3.83384e-05
150.0,-0.000641334
150.0,-0.000435416
150.0,-0.000245595
150.0,-0.000195889
150.0,-0.000241038
150.0,-0.000335557
150.0,-0.00459405
150.0,-0.000749608
150.0,-0.000798873
150.0,-0.000128351
150.0,-0.000339952
150.0,-0.000291173
150.0,-0.000728992
150.0,-0.000278515
150.0,-0.00144319
150.0,-0.000292147
150.0,-0.000170468
150.0,-0.000203294
150.0,-0.000423086
150.0,-0.000380662
150.0,0.000149332
150.0,-0.000297354
150.0,-8.58803e-05
150.0,-0.000291643
150.0,-0.000119539
150.0,-0.000257149
150.0,-0.000722199
150.0,-0.00035766
150.0,-0.00326918
150.0,-0.000343299
150.0,-0.000194333
150.0,-2.92111e-05
150.0,-0.000301716
150.0,-0.000344345
150.0,-0.00325782
150.0,-0.000283816
150.0,-0.000573653
150.0,-0.000420737
150.0,-0.000358631
150.0,-0.000297252
150.0,-0.000475954
150.0,-0.000273439
150.0,-0.000307538
150.0,-0.00103862
150.0,-0.000767467
150.0,-0.00036624
150.0,-0.000249289
150.0,-0.000314715
150.0,-0.00110416
150.0,-0.000245633
150.0,-0.000389333
150.0,1.83285e-07
150.0,-0.000455615
150.0,-0.000553517
150.0,-0.000303815
150.0,-0.00029183
150.0,-0.000283318
150.0,-0.0010652
150.0,-0.000233745
150.0,-0.000541968
150.0,-0.000307538
150.0,-2.68298e-05
150.0,-0.00100386
150.0,-0.000443318
150.0,-0.000563437
150.0,-0.00029183
150.0,-0.00106776
150.0,-7.80304e-05
150.0,-0.00113969
150.0,-0.000841157
150.0,2.69569e-05
150.0,-0.000273805
150.0,-0.000248469
150.0,-0.000474072
150.0,-0.000556913
150.0,-0.0010652
150.0,-0.000253819
150.0,-0.000354211
150.0,-0.000267042
150.0,-0.000238759
150.0,-0.000519411
150.0,-0.000309392
150.0,-0.000320555
150.0,-0.000746704
150.0,-0.000635007
150.0,-0.000291718
150.0,-0.000420289
150.0,-0.000238249
150.0,-0.000576274
150.0,-0.000415907
150.0,-0.00024532
150.0,-0.00103234
150.0,-0.000768275
150.0,-0.000275887
150.0,-0.000345989
150.0,-0.000463146
150.0,-0.00031062
150.0,-0.00147231
150.0,-0.000198131
150.0,-0.000700042
150.0,-0.00100558
150.0,-0.000833253
150.0,-0.000514067
150.0,-0.000327446
150.0,-0.00100558
150.0,-0.000291353
150.0,-0.000496185
150.0,-0.000664131
150.0,-0.000965991
150.0,-0.000714841
150.0,-0.00071836
150.0,-0.000340342
150.0,-0.000274852
150.0,-0.000222879
150.0,-0.00115528
150.0,-0.000264981
150.0,-0.000594818
150.0,-0.00036681
155.0,-0.000493712
155.0,-0.000231199
155.0,-0.000471839
158.0,-0.000767373
159.854,-0.000599075
160.0,-0.00102978
160.0,-0.00338012
160.0,-0.00307663
160.0,-0.000683898
160.0,-0.000539366
160.0,-0.000430208
160.0,-0.000954552
160.0,-0.000572763
160.0,-0.000351142
160.0,-0.000604189
160.0,-0.000597165
160.0,-0.000316355
160.0,-0.00045088
160.0,-0.000577377
160.0,-0.0003504
160.0,-0.000335421
160.0,-0.000592631
160.0,-0.0010797
160.0,-0.000427618
160.0,-0.000504414
160.0,-0.000543035
160.0,-0.000469695
160.0,-0.000355564
160.0,0.000432191
160.0,-0.000557787
160.0,-0.000384648
160.0,-0.000281499
160.0,-0.000647787
160.0,-0.000766429
160.0,-0.000405592
160.0,-0.000725564
160.0,-0.00129295
160.0,-0.000363485
160.0,-0.000703945
160.0,-0.000742413
160.0,-0.000377657
160.0,-0.000550381
160.0,-0.000393688
160.0,-0.000783989
160.0,-0.000380362
160.0,-0.00039023
160.0,-0.00040428
160.0,-0.000258224
160.0,-0.000532203
160.0,-0.000559378
160.0,-0.00111146
160.0,-0.000326362
160.0,-0.000880005
160.0,-0.00030012
160.0,-0.000850083
160.0,-0.000858776
160.0,-0.000424283
160.0,-0.000623148
160.0,-0.000615555
160.0,-0.0011522
160.0,-0.0010819
160.0,-0.000549383
160.0,-0.00030012
160.0,-0.00123438
160.0,-0.000429218
160.0,-0.000599135
160.0,-0.000489123
160.0,-0.000582444
160.0,-0.000522226
160.0,-0.000372868
160.0,-0.000337333
160.0,-0.00388988
160.0,-0.000458478
160.0,-0.00344736
160.0,-0.000886031
160.0,-0.000326362
160.0,-0.00119663
160.0,-0.000925466
160.0,-0.000963193
160.0,-0.0011949
160.0,-0.000698955
160.0,-0.000567272
160.0,-0.000375761
160.0,-0.00037876
160.0,-0.000359992
160.0,-0.000312977
160.0,-0.000725564
160.0,-0.000335421
160.0,-0.000912076
160.0,-0.000318843
160.0,-0.000414405
160.0,-0.000819713
160.0,-0.00110508
160.0,-0.000547404
160.0,-0.000861652
160.0,-0.000582103
160.0,-0.000322239
160.0,-0.00192017
160.0,-0.00026462
160.0,-0.00059792
160.0,-0.000353412
160.0,-0.000191624
160.0,-0.000394675
160.0,-0.000604189
160.0,-0.000422421
160.0,-0.000534937
160.0,-0.000357286
160.0,-0.000625604
160.0,-0.000664665
160.0,-0.000338925
160.0,-0.000395856
160.0,-0.000217188
160.0,-0.00026473
160.0,-0.000593711
160.0,-0.00046096
160.0,-0.000343381
160.0,-0.00144921
160.0,-0.000415908
160.0,-0.000590327
160.0,-0.00106193
160.0,-0.000386178
160.0,-0.000667668
160.0,-0.000572149
160.0,-0.000368873
160.0,-0.000487097
160.0,-0.000608437
160.0,-0.000594063
160.0,-0.000341603
160.0,-0.000563358
160.0,-0.000938098
160.0,-0.000886031
160.0,-0.00030012
160.0,-0.000566901
160.0,-0.00109734
160.0,-0.000591474
160.0,-0.000435403
160.0,-0.000512738
160.0,-0.000549168
160.0,-0.000443514
160.0,-0.00071375
160.0,-0.00030638
160.0,-0.000313182
160.0,-0.000378306
160.0,-0.00042101
160.0,-0.000394433
160.0,-0.000383453
160.0,-0.000547126
160.0,-0.000393957
160.0,-0.000347143
160.0,-0.00030012
160.0,-0.00055965
160.0,-0.000294099
160.0,-0.000638972
160.0,-0.000722341
160.0,-0.00032513
160.0,-0.000585932
160.0,-0.000575965
160.0,-0.000409867
160.0,-0.000317185
160.0,-0.000541969
160.0,-0.000606545
160.0,-0.000500496
160.0,-0.000352466
160.0,-0.00042696
160.0,-0.00065306
160.0,-0.000659127
160.0,-0.000308556
160.0,-0.000484815
160.0,-0.000392413
160.0,-0.000385669
160.0,-0.00034193
160.0,-0.000564084
160.0,-0.000620482
160.0,-0.00119402
160.0,-0.000956906
160.0,-0.000586541
160.0,-0.000717554
160.0,-0.000573585
160.0,-0.000495474
160.0,-0.00096716
160.0,-0.000596319
160.0,-0.000445851
160.0,-0.000652303
160.0,-0.000525857
160.0,-0.000382357
160.0,-0.000624284
160.0,-0.000331859
160.0,-0.000446408
160.0,-0.000469695
160.0,-0.000566156
160.0,-0.000348167
160.0,-0.000421719
160.0,-0.000559591
160.0,-0.000604287
160.0,-0.00100829
160.0,-0.000608373
160.0,-0.000956683
160.0,-0.000320665
160.0,-0.000264421
160.0,-0.000320169
160.0,-0.000438208
160.0,-0.000411605
160.0,-0.000386128
160.0,-0.000819713
160.0,-0.000641032
160.0,-0.000627315
160.0,-0.000581608
160.0,-0.000319525
160.0,-0.000671277
160.0,-0.000537429
160.0,-0.00034193
160.0,-0.000320822
160.0,-0.000714722
160.0,-0.000282357
160.0,-0.000480395
160.0,-0.000306357
160.0,-0.000338983
160.0,-0.00121434
160.0,-0.00062853
160.0,-0.00031627
160.0,-0.000370843
160.0,-0.000596747
160.0,-0.000501113
160.0,-0.000364084
160.0,-0.000343233
160.0,-0.00066864
160.0,-0.000520777
160.0,-0.000351043
160.0,-0.000560739
160.0,-0.00128207
160.0,-0.000343031
160.0,-0.000341603
161.056,-0.000347515
165.0,-0.00244874
165.0,-0.000404509
165.0,-0.00043793
165.0,-0.000565369
165.0,-0.00189279
165.0,-0.00101238
165.762,-0.000496672
167.0,-0.000519095
170.0,-0.000567372
170.0,-0.000339807
170.0,-0.0022864
170.0,-0.000616542
170.0,-0.000629959
170.0,-0.00038264
170.0,-0.000636377
170.0,-0.000594213
170.0,-0.000713691
170.0,-0.00049048
170.0,-0.000545228
170.0,-0.000522254
170.0,-0.00127076
170.0,-0.000293661
170.0,-0.000361422
170.0,-0.00104735
170.0,-0.000314448
170.0,-0.00136735
170.0,-0.000476
170.0,-0.00124052
170.0,-0.000612961
170.0,-0.000530732
170.0,-0.00035732
170.0,-0.000846124
170.0,-0.000537541
170.0,-0.000339807
170.0,-0.000553014
170.0,-0.00048442
170.0,-0.00058827
170.0,-0.000399999
170.0,-0.000535459
170.0,-0.000684727
170.0,-0.000663795
170.0,-0.000422997
170.0,-0.000572433
170.0,-0.00242572
170.0,-0.000442507
170.0,-0.000374385
170.0,-0.000636483
170.0,-0.000452904
170.0,-0.0005199
170.0,-0.0024131
170.0,-0.00126147
170.0,-0.000533076
170.0,-0.00121904
170.0,-0.000323654
170.0,-0.00126956
170.0,-0.000325364
170.0,-0.000553143
170.0,-0.000389833
170.0,-0.000343829
170.0,-0.000537076
170.0,-0.000226148
170.0,-0.000630337
170.0,-0.000484174
170.0,-0.0004988
170.0,-0.000342115
170.0,-0.00037237
170.0,-0.0003976
170.0,-0.000849119
170.0,-0.00041568
170.0,-0.000546314
170.0,-0.000744894
170.0,-0.00149855
170.0,-0.000807103
170.0,-0.000722201
170.0,-0.000934814
170.0,-0.00073251
170.0,-0.000478468
170.0,-0.00122422
170.0,-0.000984253
170.0,-0.00040199
170.0,-0.0011364
170.0,-0.000724371
170.0,-0.00109081
170.0,-0.000310123
170.0,-0.000461313
170.0,-0.000382287
170.0,-0.00110589
170.0,-0.000734634
170.0,-0.000356993
170.0,-0.00118397
170.0,-0.000422968
170.0,-0.000193387
170.0,-0.000462093
170.0,-0.000580298
174.0,-0.00348259
175.0,-0.000308416
175.0,-0.000578427
175.0,-0.000410491
175.0,-0.00170902
175.0,-0.000610929
175.0,-0.000974605
175.0,-0.000464736
175.0,-0.000556871
175.0,-0.000330145
175.0,-0.000590179
175.0,-0.00054131
175.0,-0.000407647
175.0,-0.000514936
175.0,-0.000862009
175.0,-0.000396577
175.0,-0.000995234
175.0,-0.000631584
175.0,-0.000632223
175.0,-0.000496674
175.0,-0.000336899
175.0,-0.000444208
175.0,-0.00045371
175.0,-0.000403115
175.0,-0.00118685
175.0,-0.000494962
175.0,-0.000647711
175.0,-0.000597528
175.0,-0.000862715
175.0,-0.000512909
175.0,-0.000639029
175.0,-0.000409522
175.0,-0.000327398
175.0,-0.00060481
175.0,-0.000551746
175.0,-0.000717174
175.0,-0.000442234
175.0,-0.000507185
175.0,-0.000347101
175.0,-0.000599858
175.0,-0.00067643
175.0,-0.000609869
175.0,-0.000426611
175.0,-0.000475587
175.0,-0.000602743
175.0,-0.000515804
175.0,-0.000619725
175.0,-0.000353343
175.0,-0.00054766
175.0,-0.00060859
175.0,-0.00153016
175.0,-0.000361195
175.0,-0.000601447
175.0,-0.000512964
175.0,-0.000531708
175.0,-0.000862715
175.0,-0.000525713
175.0,-0.000468887
175.0,-0.000700186
175.0,-0.00051888
175.0,-0.000777284
175.0,-0.000648859
175.0,-0.000428252
175.0,-0.000622558
175.0,-0.000572328
175.0,-0.000509687
175.0,-0.00073342
175.0,-0.000486981
175.0,-0.000538024
175.0,-0.000623638
175.0,-0.000428927
175.0,-0.000605286
175.0,-0.000460039
175.0,-0.00047916
175.0,-0.00113855
175.0,-0.000600716
175.0,-0.00063054
175.0,-0.000514793
175.0,-0.000616801
175.0,-0.000432315
175.0,-0.000439165
175.0,-0.000555329
175.0,-0.000917656
175.0,-0.000410491
175.0,-0.000529704
175.0,-0.00117651
175.0,-0.000526932
175.0,-0.000389221
175.0,-0.000617386
175.0,-0.000433703
175.0,-0.00037995
175.0,-0.000421291
175.0,-0.000392706
175.0,-0.000430699
175.0,-0.000352692
175.0,-0.000927776
175.0,-0.000335147
175.0,-0.000533826
175.0,-0.000850936
175.0,-0.000475465
175.0,-0.000596764
175.0,-0.00062446
175.0,-0.00049406
175.0,-0.000522411
175.0,-0.000493836
175.0,-0.000635264
175.0,-0.00122092
175.0,-0.000670049
175.0,-0.000549079
175.0,-0.000308416
175.0,-0.000586868
175.0,-0.00146234
175.0,-0.000627822
175.0,-0.000345555
175.0,-0.000552104
175.0,-0.00053209
175.0,-0.000408849
175.0,-0.000402832
175.0,-0.000414735
175.0,-0.000337646
175.0,-0.000423936
175.0,-0.000373909
175.0,-0.000489671
175.0,-0.000525651
175.0,-0.00131131
175.0,-0.000462612
175.0,-0.000430263
175.0,-0.000650713
175.0,-0.000384884
175.663,-0.000554393
178.0,-0.000612965
180.0,-0.000758227
180.0,-0.000377971
180.0,-0.000648517
180.0,-0.000501271
180.0,-0.000352397
180.0,-0.000720697
180.0,-0.00051204
180.0,-0.00150238
180.0,-0.000349344
180.0,-0.000501271
180.0,-0.000897286
180.0,-0.00113047
180.0,-0.000352397
180.0,-0.000244189
180.0,-0.000592464
180.0,-0.000657559
180.0,-0.00223851
180.0,-0.00118418
180.0,-0.000592751
180.0,-0.000405215
180.0,-0.000553953
180.0,-0.000260823
180.0,-0.00323433
180.0,-0.00432211
180.0,-0.000483752
180.0,-0.000561018
180.0,-0.000645009
180.0,-0.000515708
180.0,-0.000831743
180.0,-0.000361497
180.0,-0.00432983
180.0,-0.00432211
180.0,-0.000592214
180.0,-0.000603687
180.0,-0.00215402
180.0,-0.000290783
180.0,-0.0005994
180.0,-0.000648817
180.0,-0.000284118
180.0,-0.000743283
180.0,-0.00150232
180.0,-0.000344789
180.0,-0.000513202
180.0,-0.00279761
180.0,-0.000818556
180.0,-0.00066242
180.0,-0.000476376
180.0,-0.000429216
187.0,-0.0108191
190.0,-0.000673975
190.0,-0.00146089
190.0,-0.000732478
190.0,-0.00348944
190.0,-0.00119316
190.0,-0.000673975
190.0,-0.000730472
190.0,-0.000716496
200.0,-0.000347217
200.0,-0.000412228
200.0,-0.00049423
200.0,-0.000525241
200.0,-0.000389171
200.0,-0.000718423
200.0,-0.000368219
210.0,-0.00124506
210.0,-0.000966567
210.0,-0.00125779
220.0,-0.000559586
300.0,-0.000542522
450.0,-0.000356684
500.0,-0.000786195