File: KFI-RHO-LTA-UFI_paper/dependence_plot_data/UFI_Crystallization temp.csv
Crystallization temp,SHAP value
0.0,-0.000282741
0.0,-0.000427489
0.0,-0.000333186
30.0,-0.00117687
50.0,-0.000246875
60.0,-0.000179532
60.0,-0.00020614
65.0,-0.000294584
65.0,-0.000156769
70.0,-0.000187468
80.0,-0.000283875
80.0,-0.000284681
80.0,-0.000995944
80.0,-0.000513601
90.0,-0.00020074
90.0,-0.000472124
90.0,-0.000208891
90.0,-0.000200838
90.0,-0.00020451
90.0,-0.000208891
90.0,-0.00186749
90.0,-0.000206589
95.0,-0.00180911
95.0,-0.000445459
100.0,-0.000257413
100.0,-0.0003364
100.0,-8.71172e-05
100.0,-0.00179236
100.0,-0.000173922
100.0,-0.00016126
100.0,-0.00614556
100.0,-0.000297842
100.0,0.000148967
100.0,-0.00037669
100.0,-0.00108292
100.0,-0.000143858
100.0,-0.000615791
100.0,-0.000909965
100.0,-0.000264497
100.0,-0.000151632
100.0,-0.00357523
100.0,-0.000208627
100.0,2.74162e-05
100.0,-0.0602416
100.0,-0.0428189
100.0,-0.00037629
100.0,-0.000355531
100.0,-0.0124226
100.0,-0.00131663
100.0,-0.000337159
100.0,-0.000180352
100.0,-0.00118345
100.0,0.000113063
100.0,-0.000832932
100.0,-0.000489639
100.0,-0.0749063
100.0,-0.000340759
100.0,-0.000255682
100.0,-0.00105946
100.0,-0.000391021
100.0,-0.0011213
100.0,-0.000319253
100.0,-0.00113935
100.0,-0.00014408
100.0,-0.000832932
100.0,-0.000132618
100.0,-0.000431729
100.0,-0.000705765
100.0,-0.000146513
100.0,-0.000341254
100.0,-3.53745e-05
100.0,-0.000153704
100.0,-0.000490914
100.0,-0.00175034
100.0,-0.000180352
100.0,-0.00175566
100.0,-7.0144e-05
100.0,-0.000257413
100.0,-0.00100888
100.0,4.36967e-05
100.0,-0.000340333
100.0,-0.000232936
100.0,-0.000837278
100.0,-0.000349508
100.0,-0.000736825
100.0,-0.000149
100.0,-0.00327905
100.0,-0.000262587
100.0,-0.00170374
100.0,-0.000532482
100.0,-0.000237002
100.0,-0.000279607
100.0,-0.00351537
100.0,-0.00106808
100.0,-0.000354584
100.0,-0.000765167
100.0,-0.000165704
100.0,-0.00146271
110.0,-0.000297628
110.0,-0.000288849
110.0,-0.000309865
110.0,-0.000290097
110.0,-0.000277279
110.0,-0.000311335
110.0,-0.000260005
110.0,-0.000288044
110.0,-0.000368209
110.0,-0.000303855
110.0,-0.000254274
110.0,-0.000282567
110.0,-0.000272999
110.0,-0.000374489
110.0,-0.000288122
110.0,-0.000361099
110.0,-0.000335758
110.304,-2.7474e-05
115.0,4.62901e-06
115.0,-5.18742e-07
117.479,4.65009e-05
120.0,4.11439e-05
120.0,6.9886e-05
120.0,6.29837e-05
120.0,0.000150509
120.0,0.000113994
120.0,0.000242351
120.0,-3.29107e-05
120.0,7.34718e-05
120.0,0.000242351
120.0,5.7039e-05
120.0,0.00011525
120.0,-0.0015383
120.0,-4.02385e-05
120.0,7.05556e-05
120.0,0.000623066
120.0,0.000500226
120.0,-0.00154638
120.783,0.000105351
125.0,0.000148243
125.0,0.00021095
125.0,0.000202012
125.0,0.000742922
125.0,0.000194611
125.0,0.000261089
125.0,0.000176755
125.0,0.000277686
125.0,0.000143469
130.0,0.000311298
130.0,0.00029533
130.0,0.000309792
130.0,0.000498698
130.0,0.000239701
130.0,0.000372016
130.0,0.000338815
130.0,0.000524779
135.0,0.000449402
135.0,0.00026731
135.0,0.000352208
135.0,0.000410252
135.0,0.000337337
135.0,-0.000193156
135.0,-0.000172914
135.0,0.000475451
135.0,0.000414456
135.0,0.000370696
135.0,0.000321194
135.0,0.000477712
135.0,0.000255434
135.0,0.000207172
135.0,0.000713911
135.0,0.000319656
135.0,0.000334527
135.0,0.00059029
135.0,0.000342861
135.0,0.00031329
135.0,0.000314241
135.0,0.000255764
135.0,0.000442275
135.0,0.000327036
135.0,0.000218941
135.0,0.00067232
135.0,0.000485052
136.483,0.00125987
138.0,0.000299968
140.0,0.000307968
140.0,0.000220967
140.0,0.000615247
140.0,0.00064372
140.0,0.000443886
140.0,0.000791657
140.0,0.000282642
140.0,0.000297857
140.0,0.000329888
140.0,0.000385586
140.0,0.000466052
140.0,0.000292781
140.0,0.000693741
140.0,0.000251069
140.0,0.000220967
140.0,0.000324892
140.0,0.000325971
140.0,0.00109759
140.0,0.000287262
140.0,0.000940208
140.0,0.000247604
140.0,0.000365698
140.0,0.000478461
140.0,0.00029474
140.0,0.000902917
140.0,0.00115431
140.0,0.000902917
140.0,0.000905585
140.0,0.000288658
140.0,0.000762685
140.0,0.000815965
140.0,0.000307703
140.0,0.000580325
140.0,0.000326968
140.0,0.000320968
140.0,0.000900107
140.0,0.000771987
140.0,0.000302636
140.0,0.000220434
140.0,0.000309337
140.0,0.000278885
140.0,0.000939128
140.0,0.000325971
140.0,0.000244406
140.0,0.000286469
140.0,0.0011571
140.0,0.000561543
140.0,0.000458713
140.0,0.000334524
140.0,0.000333305
140.0,0.000259165
140.0,0.000213649
140.0,0.000467936
140.0,0.000464146
140.0,0.000745546
140.0,0.00055377
140.0,0.000307703
140.0,0.000318067
140.0,0.000305586
140.0,0.000227837
140.0,0.00105311
140.0,0.000302437
142.5,0.000117234
142.5,0.000259855
142.5,0.000148834
142.5,0.000190824
142.853,0.000451708
145.0,0.00389419
145.0,0.00120524
145.0,0.00235161
145.0,0.000170945
145.0,0.000206201
145.734,0.000268644
150.0,0.000372972
150.0,0.000453059
150.0,0.000336085
150.0,0.000404511
150.0,0.000896035
150.0,-0.000174406
150.0,-0.000172365
150.0,0.000682295
150.0,0.000372197
150.0,0.000419599
150.0,0.000297165
150.0,0.000304839
150.0,0.000313523
150.0,0.000255295
150.0,0.000515771
150.0,0.000190377
150.0,0.000216669
150.0,0.00035972
150.0,0.000625898
150.0,0.000197185
150.0,0.000284304
150.0,-0.00011893
150.0,0.000390254
150.0,0.000388401
150.0,0.000430132
150.0,0.000767824
150.0,0.000318656
150.0,0.00062068
150.0,0.00032722
150.0,0.000402516
150.0,0.000338826
150.0,0.000247642
150.0,0.000634099
150.0,0.000611528
150.0,0.00022499
150.0,0.000320018
150.0,0.000323659
150.0,0.000277058
150.0,0.000368617
150.0,0.000325828
150.0,0.000190802
150.0,0.000340546
150.0,0.000256836
150.0,0.000388776
150.0,0.000346748
150.0,0.000375568
150.0,0.000281175
150.0,0.000288166
150.0,0.000426572
150.0,0.000337975
150.0,0.000416901
150.0,0.000868569
150.0,0.000365632
150.0,0.000388234
150.0,0.000369177
150.0,0.00154256
150.0,0.000339776
150.0,0.00372675
150.0,0.000324231
150.0,0.000400342
150.0,0.000337975
150.0,0.00030789
150.0,0.000208191
150.0,0.00109365
150.0,-0.000187237
150.0,0.000570456
150.0,0.000202629
150.0,0.000280971
150.0,0.000261771
150.0,0.000491283
150.0,0.000491018
150.0,0.000425699
150.0,0.000735856
150.0,-0.000177258
150.0,0.000373085
150.0,0.00034503
150.0,0.000605258
150.0,0.000243232
150.0,0.000258828
150.0,0.000567713
150.0,0.000432393
150.0,0.000282914
150.0,-0.000186433
150.0,0.000375542
150.0,0.000361272
150.0,0.000213541
150.0,0.000221051
150.0,0.000243232
150.0,0.000669809
150.0,0.000339889
150.0,0.000497321
150.0,0.000191075
150.0,0.000243579
150.0,0.000365652
150.0,0.000620199
150.0,0.00317153
150.0,0.0003111
150.0,0.000567713
150.0,0.000307104
150.0,0.000507439
150.0,0.000332454
150.0,0.000593458
150.0,0.00143265
150.0,0.000258934
150.0,0.000481664
150.0,0.000224108
150.0,0.000280045
150.0,0.000374947
150.0,0.000400183
150.0,0.000406309
150.0,0.000110645
150.0,0.000436145
150.0,0.000425699
150.0,0.000312327
150.0,0.000372302
150.0,0.000240092
150.0,0.000231864
150.0,0.000213744
150.0,0.00627842
150.0,0.00032444
150.0,0.000526902
150.0,0.000441592
150.0,0.000716633
150.0,0.000461472
150.0,0.000359607
150.0,0.000342872
150.0,0.000716633
150.0,0.000852231
150.0,0.00353863
150.0,0.000269496
150.0,0.000192425
150.0,0.000425288
150.0,0.000420294
150.0,0.000502886
150.0,0.000329058
150.0,0.000343811
150.0,0.000172001
150.0,0.000450661
150.0,0.000300281
150.0,0.000423207
155.0,0.000291989
155.0,0.00161838
155.0,0.000330661
158.0,-3.02441e-05
159.854,-0.000283589
160.0,-1.15206e-05
160.0,-5.82238e-05
160.0,9.71342e-05
160.0,0.000129393
160.0,-2.5498e-05
160.0,-8.90842e-05
160.0,3.6225e-05
160.0,3.86183e-05
160.0,-8.14079e-05
160.0,0.000113515
160.0,4.25042e-06
160.0,5.53139e-05
160.0,0.000270828
160.0,-2.94345e-05
160.0,8.7229e-05
160.0,4.25668e-06
160.0,0.000100238
160.0,3.63981e-05
160.0,2.89507e-05
160.0,2.0159e-06
160.0,3.25426e-05
160.0,4.413e-05
160.0,6.1496e-05
160.0,3.45287e-05
160.0,2.01495e-05
160.0,2.54841e-05
160.0,3.78568e-05
160.0,4.79354e-05
160.0,4.84311e-05
160.0,4.78478e-05
160.0,0.000105788
160.0,4.93839e-05
160.0,4.88394e-05
160.0,2.39713e-05
160.0,8.2484e-05
160.0,0.00010437
160.0,1.34572e-05
160.0,0.000239791
160.0,8.86611e-05
160.0,1.93271e-05
160.0,1.83821e-05
160.0,-2.97438e-05
160.0,2.33678e-05
160.0,0.000120092
160.0,-0.000534609
160.0,5.36968e-05
160.0,6.45405e-06
160.0,3.18703e-05
160.0,9.0854e-05
160.0,2.79631e-05
160.0,9.14213e-05
160.0,2.14474e-06
160.0,1.23946e-05
160.0,-1.47128e-06
160.0,1.90672e-05
160.0,4.18056e-05
160.0,1.34572e-05
160.0,9.0854e-05
160.0,-8.72184e-06
160.0,-1.57478e-05
160.0,0.000684764
160.0,7.04925e-05
160.0,0.000348141
160.0,-1.92805e-05
160.0,-2.59218e-05
160.0,-1.72188e-06
160.0,5.24315e-06
160.0,6.74078e-05
160.0,4.1504e-05
160.0,3.89588e-05
160.0,6.45405e-06
160.0,3.50488e-05
160.0,1.44447e-05
160.0,2.19083e-05
160.0,6.64759e-05
160.0,3.25439e-05
160.0,0.000101132
160.0,1.69344e-05
160.0,0.000149592
160.0,2.76909e-05
160.0,1.7907e-05
160.0,0.000105788
160.0,4.25668e-06
160.0,3.60217e-05
160.0,1.97587e-05
160.0,8.34377e-05
160.0,6.61476e-05
160.0,6.87439e-05
160.0,-0.000139501
160.0,2.70285e-05
160.0,3.37535e-05
160.0,3.35511e-05
160.0,3.02746e-05
160.0,6.46811e-06
160.0,9.57819e-05
160.0,4.06041e-05
160.0,3.14916e-05
160.0,0.000199826
160.0,0.000113515
160.0,-5.0788e-05
160.0,0.000123048
160.0,1.48274e-05
160.0,3.64964e-06
160.0,-2.54023e-05
160.0,1.86808e-05
160.0,2.20186e-05
160.0,-2.49827e-05
160.0,1.59237e-06
160.0,9.78596e-05
160.0,-4.34168e-06
160.0,0.000188444
160.0,-9.66796e-05
160.0,2.77901e-05
160.0,0.000119739
160.0,3.97452e-05
160.0,4.17256e-06
160.0,-3.1617e-05
160.0,7.76772e-05
160.0,2.79589e-05
160.0,1.22682e-05
160.0,0.000124303
160.0,0.00011621
160.0,1.19773e-05
160.0,0.000141709
160.0,2.73867e-05
160.0,3.89588e-05
160.0,9.0854e-05
160.0,9.26454e-05
160.0,2.61894e-05
160.0,0.000110504
160.0,0.000211792
160.0,2.88907e-05
160.0,5.06224e-05
160.0,2.85504e-05
160.0,5.2591e-05
160.0,6.79711e-05
160.0,4.54774e-05
160.0,-6.92308e-07
160.0,0.000101332
160.0,8.58767e-05
160.0,8.42361e-06
160.0,-0.000138394
160.0,0.000233909
160.0,4.46539e-06
160.0,9.0854e-05
160.0,8.14458e-05
160.0,6.20488e-05
160.0,9.04632e-05
160.0,0.000253522
160.0,4.48091e-05
160.0,-4.83544e-05
160.0,-8.38312e-07
160.0,7.27785e-05
160.0,3.52179e-05
160.0,4.66491e-05
160.0,2.26758e-05
160.0,-1.06465e-05
160.0,1.55187e-05
160.0,0.000116893
160.0,-4.11245e-05
160.0,7.99475e-05
160.0,3.41554e-05
160.0,0.000123905
160.0,0.000237488
160.0,0.000690118
160.0,0.000408599
160.0,3.48813e-05
160.0,0.000120987
160.0,-0.000122011
160.0,1.47411e-05
160.0,7.96546e-05
160.0,5.38938e-05
160.0,-1.81964e-05
160.0,5.37601e-05
160.0,-9.92973e-06
160.0,5.02919e-05
160.0,-2.60962e-06
160.0,8.53232e-07
160.0,1.56424e-05
160.0,0.000258334
160.0,0.000144896
160.0,1.9728e-05
160.0,0.000165768
160.0,4.413e-05
160.0,-3.21401e-06
160.0,2.46959e-05
160.0,0.00011732
160.0,-7.69029e-05
160.0,5.18793e-05
160.0,-1.21166e-05
160.0,-0.000105149
160.0,1.44447e-05
160.0,-3.05066e-06
160.0,6.0488e-06
160.0,4.39802e-06
160.0,-6.58993e-06
160.0,8.79925e-05
160.0,3.80639e-05
160.0,6.61476e-05
160.0,0.000107484
160.0,0.000117995
160.0,5.56294e-05
160.0,-1.5117e-05
160.0,3.94712e-05
160.0,0.000132026
160.0,0.000408599
160.0,6.68019e-05
160.0,-4.04982e-05
160.0,2.12084e-05
160.0,7.02539e-05
160.0,1.6095e-05
160.0,-1.67703e-06
160.0,-9.26481e-05
160.0,-2.51271e-05
160.0,0.000130884
160.0,1.12549e-05
160.0,-4.97857e-06
160.0,6.14476e-05
160.0,0.00014633
160.0,0.000131846
160.0,-0.000115561
160.0,-1.31443e-05
160.0,2.52978e-05
160.0,3.67377e-05
160.0,5.16514e-05
160.0,1.12913e-05
160.0,1.19773e-05
161.056,9.47568e-05
165.0,-0.000165877
165.0,-5.26797e-05
165.0,-4.03555e-05
165.0,-8.30854e-05
165.0,-0.000121876
165.0,-0.000154736
165.762,-6.60632e-05
167.0,-0.000107343
170.0,-7.67048e-05
170.0,-0.000102568
170.0,-0.000188145
170.0,-8.74895e-05
170.0,-0.000802163
170.0,-4.83229e-05
170.0,-0.000455777
170.0,-0.000178096
170.0,-8.65903e-05
170.0,-0.000130702
170.0,-8.63642e-05
170.0,-0.000294298
170.0,-0.000104328
170.0,-0.000103479
170.0,-0.000177207
170.0,-0.000160794
170.0,-8.95557e-05
170.0,-0.000291046
170.0,-7.18251e-05
170.0,-0.000122811
170.0,-9.22798e-05
170.0,-0.00424718
170.0,-0.00014522
170.0,-0.000198703
170.0,-7.03738e-05
170.0,-0.000102568
170.0,-0.000253111
170.0,-0.000263197
170.0,-9.31877e-05
170.0,4.25753e-05
170.0,-9.37359e-05
170.0,-0.000159189
170.0,-0.000121873
170.0,-7.91404e-05
170.0,-0.000117234
170.0,-0.000156935
170.0,-0.000142296
170.0,-0.000180709
170.0,-7.67849e-05
170.0,-0.000239817
170.0,-9.07383e-05
170.0,-0.00017053
170.0,-0.000110564
170.0,-0.000101009
170.0,-0.000107554
170.0,-7.43124e-05
170.0,-0.000118771
170.0,-0.000112498
170.0,-8.82862e-05
170.0,-0.000137677
170.0,-0.000170379
170.0,-9.02412e-05
170.0,-9.36329e-05
170.0,-0.000106692
170.0,-0.000116339
170.0,-0.000111696
170.0,-0.000104667
170.0,-0.000179035
170.0,-0.000108141
170.0,-0.000100628
170.0,-9.63474e-05
170.0,-0.000145805
170.0,-0.000174145
170.0,-0.000130845
170.0,-0.000104203
170.0,-0.000129643
170.0,-0.000109626
170.0,-9.01257e-05
170.0,-0.000119333
170.0,-0.000117489
170.0,-0.00013253
170.0,-9.70641e-05
170.0,-8.69739e-05
170.0,-5.01647e-05
170.0,-0.000150585
170.0,-0.00018429
170.0,-0.000322865
170.0,-7.98337e-05
170.0,-9.23198e-05
170.0,-0.000306601
170.0,-8.34763e-05
170.0,-0.00013168
170.0,-0.000290596
170.0,-0.000184136
170.0,-0.000199562
170.0,-9.78646e-05
174.0,-0.000128188
175.0,-0.000132648
175.0,-0.000138258
175.0,-0.000180677
175.0,-0.000244325
175.0,-0.000166398
175.0,-0.000130068
175.0,-0.000142152
175.0,-0.000165095
175.0,-0.000222972
175.0,-0.000125093
175.0,-0.000121201
175.0,-0.000257028
175.0,-0.000121201
175.0,-0.000129034
175.0,-8.86893e-05
175.0,-0.000335771
175.0,-0.000162685
175.0,-0.000125053
175.0,-0.000182542
175.0,4.14193e-05
175.0,-0.000144904
175.0,-0.000182991
175.0,-0.000256965
175.0,-9.12791e-05
175.0,-0.000119433
175.0,-0.000114898
175.0,-0.00013242
175.0,-0.000193107
175.0,-0.000143592
175.0,-0.000201042
175.0,-0.000124041
175.0,-0.00012966
175.0,-0.000182228
175.0,-0.000112916
175.0,-0.000178579
175.0,-0.000121536
175.0,-0.000105662
175.0,-0.000148981
175.0,-0.000142515
175.0,-0.000194885
175.0,-0.000164881
175.0,-0.000150121
175.0,-0.000224666
175.0,-0.000145701
175.0,-0.000149587
175.0,-0.000170049
175.0,-0.000136999
175.0,-0.000163038
175.0,-0.000148793
175.0,-0.000132795
175.0,-0.000117702
175.0,-0.000179677
175.0,-0.000109514
175.0,-0.000128298
175.0,-0.000193107
175.0,-8.50235e-05
175.0,-0.000178904
175.0,-0.000151435
175.0,-0.000125327
175.0,-9.29003e-05
175.0,-0.000128025
175.0,-0.000142436
175.0,-0.000152427
175.0,-0.000114576
175.0,-0.000113029
175.0,-0.000108687
175.0,-0.000133057
175.0,-0.000107967
175.0,-0.000123849
175.0,-0.000122212
175.0,-0.000142445
175.0,-0.000123303
175.0,-0.000160648
175.0,-0.000251958
175.0,-0.00013337
175.0,-0.000133529
175.0,-0.000106326
175.0,-0.000133729
175.0,-0.000110687
175.0,-0.000142483
175.0,-0.000160688
175.0,-0.000213828
175.0,-0.000180677
175.0,-0.000120307
175.0,-9.9829e-05
175.0,-0.000128454
175.0,4.72503e-05
175.0,-0.000151454
175.0,-0.000191133
175.0,-0.000155236
175.0,-0.000260634
175.0,-0.000168913
175.0,-0.000196579
175.0,-0.000143609
175.0,-0.000151832
175.0,-0.000137503
175.0,-0.000128834
175.0,-0.000116846
175.0,-0.000426193
175.0,-0.000123837
175.0,-0.000169407
175.0,-0.000130595
175.0,-0.000125232
175.0,-0.000106326
175.0,-0.000200361
175.0,-0.000195747
175.0,-0.000132179
175.0,-0.000121364
175.0,-0.000132648
175.0,-0.000223587
175.0,-0.000122695
175.0,-0.000127771
175.0,-0.00025448
175.0,-0.00018391
175.0,-0.000155771
175.0,-0.000174142
175.0,-0.000111379
175.0,-0.000119445
175.0,-0.000144744
175.0,-0.000148744
175.0,-0.000284415
175.0,-0.000111829
175.0,-0.000121026
175.0,-7.2345e-05
175.0,-0.000182028
175.0,-0.000141963
175.0,-0.000144001
175.0,-0.000183299
175.663,-0.00091516
178.0,-0.000144375
180.0,-0.000179565
180.0,-0.000168925
180.0,-0.000124215
180.0,-0.000155488
180.0,-0.00014923
180.0,-0.000119863
180.0,-0.000178126
180.0,-0.000117819
180.0,-0.000106628
180.0,-0.000155488
180.0,-0.000145884
180.0,-0.000148271
180.0,-0.00014923
180.0,-0.000231908
180.0,-0.000147213
180.0,-0.000131943
180.0,-0.000178852
180.0,-0.0001314
180.0,-0.000237538
180.0,-0.00013821
180.0,-0.000155919
180.0,-0.000152782
180.0,-0.000116579
180.0,-0.000131676
180.0,-0.00028224
180.0,-0.000209089
180.0,-0.000179259
180.0,-0.000354937
180.0,-0.000329385
180.0,-0.000761075
180.0,-0.000131058
180.0,-0.000131676
180.0,-0.000310466
180.0,-0.000223575
180.0,-0.000179081
180.0,-9.69915e-05
180.0,-0.000135445
180.0,-0.000146676
180.0,-0.000140385
180.0,-0.000477305
180.0,-0.000117654
180.0,-0.00013689
180.0,-0.000557253
180.0,-0.000222919
180.0,-0.000248145
180.0,-0.000132337
180.0,-0.000144282
180.0,-0.000188916
187.0,-0.000214978
190.0,-0.000270663
190.0,-0.000373224
190.0,-0.000445221
190.0,-0.000164126
190.0,-0.000173971
190.0,-0.000270663
190.0,-0.000446331
190.0,-0.00039656
200.0,-0.0333257
200.0,-0.00335644
200.0,-0.00145315
200.0,-0.00118778
200.0,-0.00296659
200.0,-0.000498197
200.0,-0.00705728
210.0,-0.000240257
210.0,-0.000144969
210.0,-0.000269876
220.0,-0.000217758
300.0,-0.000264259
450.0,-0.000224097
500.0,-0.000702476