File: KFI-RHO-LTA-UFI_paper/dependence_plot_data/UFI_NaSi.csv
Na/Si,SHAP value
0.0,0.000463792
0.0,0.000119127
0.0,0.000122012
0.0,0.000140912
0.0,8.44315e-05
0.0,0.00010072
0.0,4.73787e-05
0.0,0.000463792
0.0,0.000102976
0.0,8.16358e-05
0.0,4.90368e-05
0.0,5.10794e-05
0.0,5.40975e-05
0.0,9.457e-05
0.0,0.00013357
0.0,0.000208963
0.0,8.72822e-05
0.0,7.35767e-05
0.0,0.000628001
0.0,0.000330668
0.0,0.000283592
0.0,9.59724e-05
0.0,0.00012465
0.0,0.000487105
0.0,0.000134697
0.0,9.89556e-05
0.0,0.000978058
0.0,0.000194759
0.0,0.000106309
0.0,5.88973e-05
0.0,0.000194336
0.0,0.000198875
0.0,0.000299362
0.0,0.000178374
0.0,0.000101217
0.0,0.000230288
0.0,0.000183261
0.0,-0.00395934
0.0,0.000114603
0.0,8.97535e-05
0.0,0.000543335
0.0,0.000163055
0.0,-0.00133012
0.0,-0.000266734
0.0,0.000149737
0.0,0.000243056
0.0,0.00028341
0.0,0.000442261
0.0,9.87696e-05
0.0,0.000223278
0.0,2.72615e-05
0.0,8.3195e-05
0.0,5.76374e-05
0.0,-0.00185938
0.0,7.79002e-05
0.0,0.019537
0.0,0.000107533
0.0,7.76659e-05
0.0,0.000124261
0.0,0.000472756
0.0,0.000740484
0.0,0.000287784
0.0,4.00624e-05
0.0,0.000119337
0.0,0.000174154
0.0,0.00016866
0.0,0.000106474
0.0,0.000208963
0.0,9.74199e-05
0.0,0.000170945
0.0,0.000133092
0.0,0.000110627
0.0,0.000472756
0.0,3.22964e-05
0.0,0.000156694
0.0,2.65914e-05
0.0,3.80048e-05
0.0,0.000163739
0.0,4.32184e-05
0.0,5.49794e-05
0.0,0.000138544
0.0,8.42722e-05
0.0,0.000218767
0.0,0.000407861
0.0,0.00514873
0.0,0.000151916
0.0,7.84865e-05
0.0,0.000106844
0.0,4.71985e-05
0.0,0.000603477
0.0,6.68126e-05
0.0,0.000368271
0.0,7.33637e-05
0.0,7.36482e-05
0.0,0.000230572
0.0,-0.00159115
0.0,8.44387e-05
0.0,1.64251e-05
0.0,0.000123185
0.0,0.000112807
0.0,0.000101011
0.0,6.43894e-05
0.0,9.36521e-05
0.0,-1.67324e-05
0.0,0.000391381
0.0,0.00021043
0.0,0.000174058
0.0,5.80761e-05
0.0,0.000139593
0.0,0.000321624
0.0,3.57334e-05
0.0,0.000224859
0.0,0.000122794
0.0,0.000106694
0.0,0.000132498
0.0,5.60926e-05
0.0,0.0001076
0.0,0.000106666
0.0,0.000147459
0.0,8.76191e-05
0.0,9.26849e-05
0.0,0.000156806
0.0,0.000191223
0.0,6.81046e-05
0.0,0.000147658
0.0,0.000196381
0.0,7.18689e-05
0.0,4.78887e-05
0.0,-0.00182193
0.0,5.6482e-05
0.0,0.000221507
0.0,0.000244654
0.0,9.58707e-05
0.0,0.000625838
0.0,0.000140386
0.0,0.000101522
0.0,7.31984e-05
0.0,0.000303412
0.0,0.000127508
0.0,0.000964918
0.0,-0.0027675
0.0,0.000270094
0.0,0.000220087
0.0,6.75019e-05
0.0,0.000146583
0.0,-3.5846e-05
0.0,7.10579e-05
0.0,0.000232142
0.0,-9.50583e-06
0.0,4.97942e-05
0.0,0.000147699
0.0,-0.000920944
0.0,6.61406e-05
0.0,0.000104188
0.0,7.44047e-05
0.0,0.000130032
0.0,0.000329002
0.0,6.48462e-05
0.0,9.05376e-05
0.0,0.00015911
0.0,1.99404e-05
0.0,0.000182421
0.0,0.000399569
0.0,0.000145335
0.0,0.000336972
0.0,-0.00208757
0.0,8.61747e-05
0.0,-1.14558e-06
0.0,0.000111392
0.0,9.43396e-05
0.0,-9.42892e-05
0.0,-6.40443e-05
0.0,0.000720934
0.0,0.000109191
0.0,6.55593e-05
0.0,6.62794e-05
0.0,0.000232047
0.0,0.000103901
0.0,2.72615e-05
0.0,7.57101e-05
0.0,0.000140714
0.0,4.81389e-05
0.0,0.000136177
0.0,0.00045376
0.0,0.000267233
0.0,0.000559543
0.0,5.29045e-05
0.0,9.22136e-05
0.0,0.000125019
0.0,0.000358763
0.0,0.000238372
0.0,8.55015e-05
0.0,5.92658e-05
0.0,1.63809e-05
0.0,6.69751e-05
0.0,8.3166e-05
0.0,0.000136238
0.0,7.95882e-05
0.0,0.000172952
0.0,0.000188553
0.0,2.57087e-05
0.0,7.18091e-05
0.0,0.000103157
0.0,0.000128573
0.0,0.000124184
0.0,5.70748e-05
0.0,0.000109773
0.0,0.000148081
0.0,0.000138339
0.0,-0.000157814
0.0,0.0010415
0.0,0.000102135
0.0,0.000132048
0.0,0.000124719
0.0,7.1546e-05
0.0,1.35951e-05
0.0,0.000585243
0.0,7.67669e-05
0.0,0.000796277
0.0,0.000154165
0.0,0.000174058
0.0,9.74564e-05
0.0,0.000197009
0.0,0.000202309
0.0,6.39951e-05
0.0,0.000188553
0.0,7.74595e-05
0.0,0.000447346
0.0,0.000138339
0.0,0.000136238
0.0,0.000133155
0.0,0.00027113
0.0,0.000139348
0.0,0.000128462
0.0,0.00156839
0.0,-0.0011812
0.0,8.94039e-05
0.0,1.93075e-05
0.0,8.88566e-05
0.0,0.000675043
0.0,2.72615e-05
0.0,0.000154159
0.0,4.87989e-05
0.0,0.000241068
0.0,8.83856e-05
0.0,3.52441e-05
0.0,0.000204904
0.0,8.01601e-05
0.0,0.000128371
0.0,9.74199e-05
0.0,7.39915e-05
0.0,0.000138066
0.0,0.000100157
0.0,9.73559e-05
0.0,4.0555e-05
0.0,9.1763e-05
0.0,4.18886e-05
0.0,1.85219e-05
0.0,0.00015172
0.0,7.34048e-05
0.0,0.000214466
0.0,0.00012061
0.0,5.35211e-05
0.0,0.000114011
0.0,8.55015e-05
0.0,5.08585e-05
0.0,0.00013761
0.0,5.9756e-05
0.0,0.000562131
0.0,7.03922e-05
0.0,0.000295118
0.0,5.69009e-05
0.0,5.00612e-05
0.0,0.000218072
0.0,3.02612e-05
0.0,5.07874e-05
0.0,8.48216e-05
0.0,0.000119282
0.0,8.50996e-05
0.0,5.38295e-05
0.0,0.0002021
0.0,0.000134935
0.0,9.40778e-06
0.0,8.19596e-05
0.0,0.000127673
0.0,0.0001732
0.0,-0.000372078
0.0,0.000190213
0.0,0.000100625
0.0,6.28022e-05
0.0,0.000164607
0.0,0.000130562
0.0,0.00020098
0.0,0.000102231
0.0,6.6446e-05
0.0,8.84775e-05
0.0,0.000339901
0.0,0.000297957
0.0,0.000126312
0.0,9.68695e-05
0.0,0.00041282
0.0,9.4702e-05
0.0,2.93101e-05
0.0,0.000175359
0.0,9.38507e-05
0.0,0.000173324
0.0,8.87044e-05
0.0,0.000190556
0.0,0.000203449
0.0,0.000537098
0.0,6.89445e-05
0.0,9.3677e-05
0.0,8.94044e-05
0.0,9.04421e-05
0.0,0.000122012
0.0,9.95111e-05
0.0,0.000109925
0.0,0.000236067
0.0,6.7746e-05
0.0,8.77122e-05
0.0,6.00962e-05
0.0,3.89283e-05
0.0,0.000101863
0.0,5.77503e-05
0.0,2.04952e-05
0.0,9.60457e-05
0.0,0.000119149
0.0,1.93442e-05
0.0,6.55683e-05
0.0,0.000160129
0.0,5.91169e-05
0.0,8.84158e-05
0.0,0.000121491
0.0,-0.00764597
0.0,0.000252534
0.0,0.000108798
0.0,0.000382205
0.0,0.000121481
0.0,0.000100286
0.0,0.000144577
0.0,0.000122012
0.0,0.000185991
0.0,7.74286e-05
0.0,6.93813e-05
0.0,5.66014e-05
0.0,8.45283e-05
0.0,5.11017e-05
0.0,0.000241606
0.0,9.52366e-05
0.0,0.000274739
0.0,0.000190213
0.0,0.000123333
0.0,0.000152542
0.0,0.00061924
0.0,5.70748e-05
0.0,4.83662e-05
0.0,3.23636e-05
0.0,9.22851e-05
0.0,7.67359e-05
0.0,4.46211e-05
0.0,6.95408e-05
0.0,0.000325058
0.0,0.000165324
0.0,0.000318445
0.0,7.89513e-05
0.0,0.000223278
0.0,6.46469e-05
0.0,0.000195727
0.0,0.000182586
0.0,-0.00020064
0.0,0.000104803
0.0,0.000128749
0.0,9.8976e-05
0.0,0.000262511
0.0,0.000136835
0.0,0.000185686
0.0,7.16966e-05
0.0,0.00013684
0.0005,0.000171603
0.002,0.000233023
0.004,0.000211556
0.008,0.000199227
0.0084,0.00032705
0.01,0.000259001
0.0124103,0.000509483
0.0125,0.000164541
0.0133333,0.000213638
0.01575,0.000464374
0.018,0.000508142
0.0188235,0.000772848
0.02,0.000195865
0.02,0.000192927
0.02,0.000192973
0.02,0.000132253
0.02,0.000172204
0.02,0.000133303
0.02,0.000398222
0.02,0.000136496
0.02,0.000304646
0.0220513,8.45167e-05
0.022069,0.00287836
0.0227273,0.000171684
0.0240385,-0.000133068
0.0243333,0.000128886
0.0243333,0.000128886
0.025,0.000196613
0.025,0.0001385
0.025,0.000241262
0.025,0.000175617
0.0261438,0.000556905
0.028,0.000102116
0.029,0.000192316
0.0294,0.000101832
0.03,9.11335e-05
0.03,0.000330614
0.03,0.000319768
0.03,0.000377001
0.03,0.000276242
0.03,0.000367569
0.03,-4.7351e-05
0.03,5.28246e-05
0.03125,0.000132743
0.0333333,0.000115243
0.0333333,0.000504168
0.04,6.05424e-05
0.04,0.000267247
0.04,0.000245168
0.04,0.000424179
0.043,0.000179042
0.046,0.000116528
0.046,9.58273e-05
0.05,0.000331918
0.05,0.000560754
0.05,0.000403204
0.05,0.000301798
0.05,0.000680196
0.05,0.000190124
0.05,0.000424179
0.05,0.000331918
0.05,0.000281629
0.05,0.000542499
0.05,0.00034621
0.05,0.00026331
0.056,0.000226404
0.06,0.000586847
0.06,0.000586029
0.06,0.00054262
0.06,0.000545028
0.06,0.000445665
0.06,0.000494832
0.06,0.000557548
0.0625,-0.0118101
0.0625,-0.0117518
0.0625,-0.0117518
0.0625,-0.01106
0.0638298,0.000198922
0.0659341,0.000338094
0.066,0.000176125
0.0666667,0.000249422
0.07,0.000496365
0.07,0.00038862
0.07,0.00072809
0.0711111,0.00103343
0.0733333,0.000633759
0.075,8.79641e-05
0.075,8.79641e-05
0.075,0.000528159
0.0788,0.000248041
0.08,0.000728538
0.08,-0.000135137
0.08,0.000153224
0.08,-3.16227e-05
0.08,0.000492485
0.08,-0.00107832
0.08,0.000390737
0.08,7.81864e-05
0.08,0.000372159
0.08,-0.00145129
0.08,0.000387993
0.08,0.000125581
0.083,0.000485502
0.083,0.000358459
0.085,0.000250537
0.09,0.000446619
0.09,0.000389847
0.09,0.000461614
0.09,0.000463114
0.0901857,1.68021e-05
0.093,0.000250603
0.098,0.000240513
0.1,0.000291819
0.1,0.000211386
0.1,7.57726e-05
0.1,0.000267531
0.1,8.01737e-05
0.1,0.000191911
0.1,0.000166875
0.1,0.000166875
0.1,0.000137447
0.1,2.34678e-05
0.1,0.000159199
0.1,0.000284993
0.1,0.000646478
0.1,0.000136473
0.1,0.000108504
0.1,0.000575091
0.1,5.82306e-05
0.1,0.000223782
0.1,0.000121167
0.1,0.000237735
0.1,4.86373e-05
0.1,6.54173e-05
0.1,0.000374147
0.1,8.25431e-05
0.1,9.9682e-05
0.1,0.000227849
0.1,0.000549141
0.1,0.000114336
0.1,0.000221304
0.1,0.000134732
0.1,0.000244438
0.1,0.000186271
0.1,0.00040798
0.1,0.000259514
0.1,0.000160161
0.1,8.37346e-05
0.1,0.000357139
0.1,0.00023713
0.100671,0.00015542
0.100671,0.000152216
0.100671,0.000254267
0.100671,0.000266463
0.100671,0.000238035
0.100671,0.000235601
0.100671,0.000221288
0.100671,0.000201704
0.106,0.000171298
0.106667,0.00141948
0.11,0.000464324
0.11,0.000365995
0.11,0.00022942
0.11,0.000430221
0.11,0.000230372
0.11,0.000360723
0.11,0.000356383
0.11,0.000487583
0.11,0.000458748
0.11,0.000143453
0.11,0.000430221
0.111,0.000218917
0.114286,7.40563e-05
0.116667,8.90796e-05
0.117647,0.00120772
0.117647,0.000931919
0.12,-0.00131092
0.12,0.000131274
0.12,0.00038145
0.12,1.74202e-05
0.12,0.00019292
0.12,-0.000120676
0.12,0.000645501
0.13,0.000303147
0.13,0.00024386
0.133333,-7.45807e-05
0.133333,-5.15917e-05
0.134,0.000117586
0.134,0.000235657
0.136364,0.000603193
0.14,0.000131411
0.14,0.000203559
0.14,6.14715e-06
0.142857,8.16194e-05
0.15,0.000176348
0.15,3.3712e-05
0.15,0.000353569
0.15,0.000229915
0.15,-6.72026e-06
0.15,-9.81832e-07
0.15,0.000156912
0.15,0.00023486
0.15625,-3.3878e-05
0.16,5.66501e-05
0.16,-1.09405e-05
0.16,0.000349488
0.16,0.0017418
0.16,2.15178e-05
0.16,0.000189509
0.1646875,0.000290153
0.17,0.000222321
0.18,-0.00382792
0.18,0.000122509
0.18,0.000128484
0.18,0.000148431
0.18,0.000239
0.18,0.000157768
0.18,0.000148427
0.18,0.000175625
0.18,3.19989e-05
0.18,4.03959e-05
0.18,0.000177747
0.18,0.000122741
0.18,0.000127983
0.18,5.69218e-05
0.18,7.10427e-05
0.18,0.000434782
0.185,0.00179007
0.19,9.20887e-05
0.19,0.000167803
0.192308,-4.95297e-05
0.2,-0.000243875
0.2,7.33425e-06
0.2,0.000110381
0.2,0.000227253
0.2,0.000118169
0.2,0.000227253
0.2,4.78249e-05
0.2,-1.72893e-05
0.2,0.000423646
0.2,-8.72211e-06
0.2,-7.1125e-05
0.2,-1.37156e-05
0.2,-6.20601e-05
0.2,-0.000255132
0.2,-5.90465e-06
0.2,-0.000842509
0.2,0.000142431
0.2,-0.000427606
0.2,-0.000219069
0.2,-1.31168e-05
0.2,2.01676e-05
0.2,-3.72395e-05
0.2,0.000176239
0.2,-9.52572e-05
0.2,6.22956e-05
0.2,0.000150115
0.2,6.49891e-05
0.2,-0.000230371
0.2,2.69662e-06
0.2,2.16995e-06
0.2,4.91893e-05
0.2,3.87857e-05
0.2,4.26513e-05
0.2,0.00012491
0.20625,-0.000400981
0.21,-0.000184477
0.21,-1.39836e-05
0.216,7.96423e-05
0.22,-5.69434e-05
0.22,-5.13129e-05
0.22,1.40802e-05
0.22,-7.12106e-05
0.22,-1.80613e-05
0.22,-0.000104427
0.220022,0.000209858
0.222222,5.3795e-06
0.239,1.00872e-05
0.24,6.18867e-06
0.24,-2.6085e-05
0.24,-1.21766e-05
0.24,0.000255441
0.24,-2.09432e-05
0.244706,-0.00109663
0.246032,-0.00011554
0.246032,-9.39122e-05
0.25,-0.000131249
0.25,-0.00021179
0.25,-0.000445817
0.25,-0.000321633
0.25,9.59865e-05
0.25,-0.000242751
0.25,-0.000103366
0.25,-2.31163e-05
0.26,-0.000221336
0.266667,-0.000232642
0.27,-0.000165541
0.276667,-0.000225398
0.276923,-0.000144222
0.28,-0.000119202
0.28,-7.77748e-05
0.28,-0.00140798
0.28,-0.000452486
0.282,-0.000229917
0.285,-0.000465409
0.29697,-0.000226289
0.3,0.000210325
0.3,-0.000169203
0.3,-0.00147915
0.3,-0.000316658
0.3,-0.000312882
0.3,-0.00022513
0.3,-0.000215201
0.3,-0.000166671
0.3,-0.00018221
0.3,-0.000175761
0.3,-0.000378754
0.3,-0.00023798
0.3,-0.000212681
0.3,-0.000249879
0.3,-0.000132689
0.3,-0.000176626
0.3,-0.000245172
0.3,-0.000361938
0.3,-0.000158843
0.3,0.000155027
0.3,0.000219188
0.3,-0.000365625
0.3,-0.000154622
0.3,-0.000470447
0.31,-0.000218558
0.32,-0.000192867
0.32,-0.000192349
0.32,-0.000176832
0.328571,-0.000176214
0.33,-0.000227553
0.33,-0.000201001
0.33,-0.000204973
0.33,-0.000205385
0.333333,-0.000229521
0.333333,-0.000193229
0.333333,-0.000192374
0.333333,-0.000214804
0.333333,-0.000180131
0.348,-0.000246503
0.35,-0.000266462
0.35,-0.000247769
0.35,-0.000237357
0.35493,0.00114586
0.359971,-0.000225597
0.36,-0.000357032
0.36,-0.00023463
0.36,-0.000230124
0.36,-0.000173304
0.365,-0.000326318
0.369231,-0.000183054
0.369231,-0.000183054
0.379939,-0.000298086
0.38,-0.000210365
0.38,-0.00020862
0.38,-0.000190175
0.38,-0.000203946
0.4,-0.000255239
0.4,-0.000261438
0.4,-0.000289833
0.4,-0.000294729
0.4,-0.000388523
0.4,-0.00305148
0.404959,-0.000219665
0.409091,-0.000297824
0.409091,-0.000327889
0.42,-0.000278312
0.42,-0.000240006
0.42,-0.000278312
0.42,-0.000278312
0.439947,-0.000265972
0.45,-0.000313931
0.45625,-0.000452738
0.46,-0.00049518
0.46,-0.000356444
0.464972,-0.000303729
0.466,-0.000299006
0.466,-0.000299006
0.466,-0.000299006
0.466667,-0.00014094
0.47,-0.000252061
0.47,-0.00025051
0.47,-0.000258953
0.47,-0.000261217
0.47,-0.000293948
0.47,-0.000255184
0.472727,-0.000494356
0.472727,-0.000494096
0.48,-0.0042138
0.48,-0.000270175
0.48,-0.0042583
0.48,-0.00025794
0.48,-0.0003961
0.48,-0.00025668
0.485437,-0.000320797
0.5,-0.000450338
0.5,-0.000676278
0.5,-0.00037563
0.5,-0.000595573
0.5,-0.000291382
0.5,-0.000356451
0.5,-0.0010475
0.5,-0.000595794
0.5,-0.000884102
0.52,-0.00103092
0.52,-0.00027026
0.52,-0.000270012
0.52,-0.000270158
0.524843,-0.000204487
0.524843,-0.000196289
0.525,-0.000417086
0.527778,-0.006497
0.527778,-0.00600071
0.527778,-0.00553098
0.529,-0.000456223
0.529,-0.000465909
0.529,-0.000460821
0.529,-0.000471407
0.533333,-0.000355766
0.54,-0.000515317
0.54,-0.000928554
0.54,-0.000599242
0.54,-0.000256467
0.54,-0.000619804
0.542005,-0.000418807
0.542005,-0.000327573
0.542005,-0.000330933
0.555556,-0.000668784
0.5559,-0.000346505
0.5559,-0.000428087
0.56,-0.000313251
0.56,-0.000269141
0.56,-0.000381093
0.566667,-0.000384001
0.571429,-0.000671831
0.572,-0.000212182
0.574713,-0.000448165
0.57732,-0.000378427
0.58,-0.000741004
0.58,-0.000261174
0.58,-0.000369161
0.588889,-0.000259261
0.598232,-0.000302087
0.6,-0.000284362
0.6,-0.000420986
0.6,-0.000674947
0.6,-0.000987075
0.6,-0.0002372
0.6,-0.0014668
0.6,-0.000337236
0.6,-0.000462783
0.6,-0.000746539
0.6,-0.000246765
0.6,-0.000347412
0.6,-0.000376579
0.6,-0.000252417
0.6,-0.000306059
0.6,-0.000305462
0.6,-0.000459331
0.6,-0.000257274
0.6,-0.000340659
0.6,-0.000338933
0.6,-0.000424017
0.6,-0.000331287
0.6,-0.000348258
0.6,-0.000338933
0.6,-0.000244771
0.6,-0.000270064
0.6,-0.000271345
0.6,-0.000242761
0.6,-0.000229522
0.6,-0.000241888
0.6,-0.00024156
0.6,-0.000256773
0.6,-0.000315297
0.6,-0.000252417
0.601408,-0.000266496
0.6269,-0.000281156
0.6269,-0.00028256
0.6344,-0.000326718
0.64,-0.000318585
0.64,-0.000337205
0.64,-0.00026605
0.64,-0.00025959
0.64,-0.00292513
0.64,-0.000326204
0.65,-0.000486707
0.65,-0.000358786
0.65,-0.000485226
0.6609,-0.00025028
0.666667,-0.000340455
0.7,-0.000300672
0.7,-0.000325039
0.7,-0.000226314
0.7,-0.00031987
0.7,-0.00045403
0.7,-0.00021555
0.704348,-0.000245458
0.712644,-0.000310352
0.716763,-0.00031721
0.72,-0.000303232
0.723404,-0.000339569
0.73,-0.000329408
0.73,-0.000311997
0.73,-0.000317993
0.73,-0.000329408
0.73,-0.00030528
0.73,-0.000306964
0.73,-0.00035452
0.73,-0.000265537
0.73,-0.000255615
0.73,-0.000271342
0.75,-0.000299948
0.77037,-0.000361601
0.77037,-0.000361601
0.78,-0.000420633
0.8,-0.0013913
0.8,-0.000432853
0.8,-0.000379249
0.8,-0.000372225
0.8,-0.000355436
0.8,-0.00187017
0.8,-0.000669633
0.8,-0.000327822
0.8,-0.000353513
0.809787,-0.000374989
0.829268,-0.000247429
0.833333,-0.000499396
0.833333,-0.000476388
0.841429,-0.000308237
0.867925,-0.000601908
0.87,-0.000362468
0.87,-0.000367262
0.87037,-0.000473141
0.88,-0.000304594
0.88,-0.000304594
0.9,-0.000305283
0.92,-0.000478676
0.944444,-0.000253248
0.95,-0.000438558
0.959693,-0.000327375
0.967742,-0.000649662