File: KFI-RHO-LTA-UFI_paper/dependence_plot_data/UFI_OHSi.csv
OH/Si,SHAP value
0.0,-0.000379233
0.0,-0.000334009
0.0,-0.000703198
0.0,-0.00114135
0.0,-0.000793268
0.0,-0.000456311
0.0,-0.000594007
0.0,-0.000416473
0.0,-0.000371002
0.0,-0.000347672
0.0,-0.000611604
0.0,-0.000690553
0.0,-0.000407869
0.0,-0.000324312
0.0,-0.000535587
0.0,-0.000378522
0.0,-0.000371973
0.0,-0.000321233
0.0,-0.000393936
0.0,-0.00044691
0.0,-0.000409796
0.0,-0.00132183
0.0,-0.000731347
0.0,-0.000538001
0.0,-0.000402437
0.0,-0.000471998
0.0,-0.000308081
0.0,-0.000342454
0.0,-0.000481235
0.0,-0.000715976
0.0,-0.000339935
0.0,-0.000813387
0.0,-0.000459499
0.0,-0.000441646
0.0,-0.000728671
0.0,-0.000329061
0.0,-0.000392767
0.0,-0.000435228
0.0,-0.000530768
0.0,-0.000491534
0.0,-0.000336307
0.0,-0.00059019
0.0,-0.000649269
0.0,-0.000462923
0.0,-0.000355647
0.0,-0.00039142
0.0,-0.000241815
0.0,-0.00035206
0.0,-0.000349452
0.0,-0.000421023
0.0,-0.000739819
0.0,-0.000320897
0.0,-0.000444502
0.0,-0.000684546
0.0,-0.00070941
0.0,-0.00262791
0.0,-0.000673846
0.0,-0.000744446
0.0,-0.000744333
0.0,-0.0056882
0.0,-0.000398942
0.0,-0.00281931
0.0,-0.000324312
0.0,-0.000472226
0.0,-0.000411973
0.0,-0.000453746
0.0,-0.000703603
0.0,-0.000982765
0.0,-0.000542744
0.0,-0.000371217
0.0,-0.000527081
0.0,-0.00281928
0.0,-0.000404782
0.0,-0.000431997
0.0,-0.000518131
0.0,-0.000329876
0.0,-0.000399095
0.0,-0.000412542
0.0,-0.000639222
0.0,-0.000667404
0.0,-0.000489357
0.0,-0.000318144
0.0,-0.000429736
0.0,-0.000547833
0.0,-0.000351805
0.0,-0.0020768
0.0,-0.000375753
0.0,-0.000361824
0.0,-0.000427621
0.0,-0.000709122
0.0,-0.000416829
0.0,-0.000346242
0.0,-0.000840222
0.0,-0.000434393
0.0,-0.000629262
0.0,-0.000345589
0.0,-0.000653639
0.0,-0.000503651
0.0,-0.000443775
0.0,-0.000321318
0.0,-0.000364652
0.0,-0.000559101
0.0,-0.000800619
0.0,-0.000398162
0.0,-0.000323661
0.0,-0.000395516
0.0,-0.000717136
0.0,-0.00117633
0.0,-0.000312411
0.0,-0.000404782
0.0,-0.000709514
0.0,-0.000742896
0.0,-0.000318508
0.0,-0.000430243
0.0,-0.000331728
0.0,-0.000408128
0.0,-0.000371034
0.0,-0.000554233
0.0,-0.000551258
0.0,-0.000510238
0.0,-0.000425851
0.0,-0.000366864
0.0,-0.000374038
0.0,-0.00071108
0.0,-0.000654907
0.0,-0.000376027
0.0,-0.00037756
0.0,-0.000402249
0.0,-0.000406482
0.0,-0.00117281
0.0,-0.00042124
0.0,-0.000442855
0.0,-0.00062491
0.0,-0.000409254
0.0,-0.000459499
0.0,-0.00065462
0.0,-0.000223452
0.0,-0.000430352
0.0,-0.000331473
0.0,-0.0007931
0.0,-0.000486327
0.0,-0.000655987
0.0,-0.000414412
0.0,-0.000511498
0.0,-0.000988663
0.0,-0.000458272
0.0,-0.000246809
0.0,-0.000414993
0.0,-0.000422733
0.0,-0.000464043
0.0,-0.000521823
0.0,-0.000653639
0.0,-0.000513258
0.0,-0.00073717
0.0,-0.000751395
0.0,-0.000428467
0.0,-0.000301935
0.0,-0.000338492
0.0,-0.000283657
0.0,-0.000350509
0.0,-0.000440229
0.0,-0.000315506
0.0,-0.000785466
0.0,-0.000352684
0.0,-0.000526437
0.0,-0.00034506
0.0,-0.000527363
0.0,-0.000264392
0.0,-0.000564901
0.0,-0.000657867
0.0,-0.000166138
0.0,-0.00062491
0.0,-0.000964262
0.0,-0.000299108
0.0,-0.000405871
0.0,-0.000672132
0.0,-0.000831272
0.0,-0.000347228
0.0,-0.00192431
0.0,-0.000377755
0.0,-0.000364256
0.0,-0.000379023
0.0,-0.000809401
0.0,-0.000652702
0.0,-0.000298692
0.0,-0.000626142
0.0,-0.000557483
0.0,-0.000728204
0.0,-0.000340857
0.0,-0.000528138
0.0,-0.00035873
0.0,-0.000330995
0.0,-0.00122851
0.0,-0.000523937
0.0,-0.000453746
0.0,-0.000632467
0.0,-0.000576182
0.0,-0.000419602
0.0,-0.000313529
0.0,-0.00065816
0.0,-0.00044944
0.0,-0.00206168
0.0,-0.000716144
0.0,-0.000647267
0.0,-0.000758354
0.00181818,-0.000412702
0.00222222,-0.000417461
0.00285714,-0.000416965
0.01,-0.000441867
0.016,-0.000604681
0.016,-0.000463675
0.016,-0.000299632
0.016,-0.000277461
0.019375,-0.000450664
0.02,-0.000274685
0.024,-0.000383998
0.024,-0.000421663
0.024,-0.000393254
0.024,-0.00027447
0.024,-0.000387747
0.024,-0.000709902
0.0243333,-0.000151998
0.0297619,-0.000486645
0.0297619,-0.000486645
0.0313,-0.000482895
0.0313,-0.00037996
0.032,-0.000399253
0.036,-0.000479846
0.04,-0.000351911
0.04,-0.000141644
0.04,-0.000243226
0.04,-0.0018882
0.04,-0.000230851
0.04,-0.000403134
0.04,-0.000327092
0.04,-0.000332146
0.04,-0.000384358
0.042,-0.0110564
0.0420875,-0.000426312
0.043,-0.000367418
0.0465574,-0.000371012
0.048,-0.000236202
0.048,-0.00034079
0.048,-0.000392052
0.048,-0.000222368
0.048,-0.000193782
0.048,-0.000515209
0.048,-0.000402133
0.05,-0.00035198
0.05,-0.000488786
0.0533333,-0.000451732
0.056,-0.000220345
0.056,-0.000424457
0.06,-0.000349946
0.06,-0.000298134
0.06,-0.000265603
0.0606061,-0.000486292
0.064,-0.000253554
0.064,-0.000452913
0.064,-0.000107713
0.064,-0.000556407
0.064,-0.00032516
0.0664,-8.97493e-05
0.0664,-0.0001359
0.07,-0.000430965
0.07,-6.58091e-05
0.07,-0.000405265
0.072,-0.000266877
0.072,-0.000336369
0.072,-0.000183866
0.072,-0.000157137
0.0720721,-0.00054236
0.075,-0.000307397
0.075,-0.000347902
0.08,-0.00131188
0.08,-0.00113776
0.08,-0.00079166
0.08,-0.000271397
0.08,-0.000387296
0.08,-0.000278105
0.08,-0.000393395
0.08,-0.000414709
0.08,-0.000419339
0.085,-0.000217553
0.088,-0.000223467
0.088,-0.00030012
0.088,-0.000248216
0.088,-0.000276592
0.088,-0.000501468
0.088,-0.000238752
0.088,-0.000242264
0.088,-0.000150075
0.088,-8.91155e-05
0.088,-0.000774457
0.088,-0.000353767
0.09,-0.000155111
0.093,-0.00020222
0.0933333,-0.000280819
0.096,-0.00307857
0.096,-0.000304691
0.096,-0.000277392
0.096,-0.000198808
0.096,-0.00231074
0.1,-0.000655694
0.1,-0.000653991
0.1,-0.000426439
0.1,-0.000304061
0.1,-0.000302583
0.1,-0.000653991
0.1,-0.000422681
0.1,-0.000653991
0.1,-0.000177723
0.1,-0.000655694
0.1,-0.000540866
0.104,-0.000181665
0.11039,8.63248e-05
0.112,-0.000646908
0.112,-0.000327967
0.112,-0.000371758
0.112,-0.000421567
0.112,-0.000252409
0.117,-0.000384916
0.12,-0.000218
0.12,-0.000259818
0.12,-0.000381974
0.12,-5.80301e-05
0.12,-0.000343545
0.12,8.84688e-05
0.124,-0.000456752
0.125,-0.00194873
0.128,-0.000239634
0.128,6.27069e-05
0.132143,-4.10838e-05
0.133333,-0.000181318
0.136,-0.000305108
0.142,-0.000502286
0.142857,-0.000453634
0.144,-0.000127521
0.144,-7.81148e-05
0.144,-0.000108287
0.144,-0.000322985
0.144,-0.000440624
0.144,-0.000239238
0.144,6.64662e-05
0.144,-0.000165111
0.144,-0.000176787
0.144,-0.00022188
0.144,-0.000271465
0.144,0.000346283
0.144,-0.00024796
0.148,-0.000171781
0.15,-0.000199051
0.15,-9.93165e-05
0.15,-0.00242389
0.15,-0.000234886
0.151333,-0.000108086
0.151333,-0.000131533
0.152,-7.7778e-05
0.153333,-0.00300432
0.15875,-0.00286948
0.159091,-0.00147339
0.16,-0.0011495
0.16,-0.000223478
0.16,-0.000221517
0.16,-0.000226269
0.16,-0.000175346
0.16,-0.000368851
0.16,-0.000318602
0.16,-0.000341435
0.16,-0.000320425
0.16,-0.000354879
0.16,-6.15418e-05
0.16,0.000323362
0.16,-9.96006e-05
0.16,6.19737e-05
0.161,-0.000193949
0.166667,-0.00166158
0.166667,-0.000308136
0.166667,-0.000449216
0.166667,-0.000344614
0.17,-0.00167951
0.17,-0.000528916
0.172,-0.00075744
0.172414,-0.000438209
0.173333,-0.000130298
0.176,-0.000291088
0.178,-0.000416639
0.178,-0.000334644
0.178,-0.000334108
0.178,-0.000305165
0.178,-0.000453399
0.178788,-0.000373167
0.18,-0.000179542
0.18,-0.000245428
0.18,0.000118584
0.18,-7.25358e-05
0.18,0.000112896
0.18,-5.26699e-06
0.181339,-0.000309302
0.183908,-0.000297175
0.189394,-0.000300159
0.189394,-0.000266602
0.189394,-0.00026767
0.189394,-0.00026767
0.1894,-0.000564242
0.19008,-0.000226481
0.191667,-0.000733617
0.192,-0.000165709
0.192,0.000109688
0.192,-0.000138179
0.192,-0.0001593
0.2,-0.000726436
0.2,-0.000320164
0.2,-0.000407699
0.2,-0.00062942
0.2,-0.000311291
0.2,-0.00159076
0.2,-0.000318353
0.2,-0.000303201
0.2,-0.000302809
0.2,-0.000293356
0.2,-0.000288496
0.2,-0.000357625
0.2,-0.000411576
0.2,-0.000467324
0.2,-0.000242672
0.2,-0.000302189
0.2,-0.000683412
0.2,-0.000316301
0.2,-0.000267835
0.2,-0.000303501
0.2,-0.000226235
0.2,-0.000303893
0.2,-0.000345093
0.2,-0.00028915
0.2,-0.000699951
0.2,-0.000439272
0.2,7.96589e-06
0.2,-0.00116703
0.2,-0.000596617
0.2,0.000299014
0.2,-0.000427865
0.2,-0.000637932
0.2,-0.000124683
0.2,-0.00353659
0.2,-0.000282027
0.2,-2.78211e-05
0.2,-0.000267402
0.2,-0.000532835
0.2,-0.000239621
0.2,-0.000150882
0.2,-0.000301221
0.2,-0.000245839
0.2,-0.000816834
0.2,0.000159565
0.2,-0.000798152
0.2,-0.000323488
0.2,-0.000445739
0.2,-0.000463468
0.2,-0.000293155
0.2,-0.000131443
0.207,-0.000471794
0.21,-0.00029889
0.213333,-0.000327697
0.215,-0.0018205
0.22,-0.000357414
0.22,-0.00122228
0.224,-0.000108371
0.224,-0.0004256
0.228,-0.000214731
0.23,2.39208e-05
0.237,-0.00038224
0.24,-0.000355665
0.24,-0.000417621
0.24,-0.000158711
0.24,-0.000198935
0.24,-0.000266034
0.24,-0.000264223
0.24,-9.28546e-05
0.24,-0.000164697
0.240024,-8.91267e-05
0.244966,-0.000252732
0.244966,-0.000393063
0.244966,-0.000228304
0.244966,-0.000177061
0.244966,-0.000372017
0.244966,-0.000374389
0.244966,-0.000300174
0.244966,-0.000192386
0.245,-0.00179794
0.246,-0.000370744
0.248,-0.000283819
0.25,-0.000489586
0.25,-0.000811972
0.25,-0.00027912
0.25,2.24122e-06
0.25,-0.000278847
0.25,-0.000534471
0.25,-0.000153648
0.256,-0.00056131
0.256,-0.000150618
0.256,-0.000179449
0.26,-0.00033778
0.26,0.00091886
0.26,4.44493e-06
0.26,-0.000136169
0.26,-0.000583253
0.27,-0.00259338
0.27,-0.00241869
0.28,-0.00025949
0.28,-0.000176015
0.28,-0.000193363
0.28,-0.000135283
0.284394,-0.000226412
0.286,-0.000374828
0.29,-0.000543671
0.292,-1.51957e-05
0.293231,-0.00025832
0.299963,-0.000139874
0.3,-0.000845619
0.3,-0.000397781
0.3,-0.00180549
0.3,-0.000349742
0.3,-0.000597398
0.3,-0.000491974
0.3,-0.000680157
0.3,-0.000574191
0.3,-0.000500188
0.3,-0.00122363
0.3,-0.000370796
0.3,-0.00482956
0.3,-0.000704515
0.3,-0.000306109
0.3,-0.00482956
0.3,-0.000587125
0.3,-0.00112248
0.3,-0.00112252
0.3,-0.000492454
0.3,-0.000690143
0.3,-0.000427467
0.3,-0.000344921
0.3,-0.000336665
0.3,-0.000427736
0.3,-0.00039771
0.3,-0.000295133
0.3,-0.00101447
0.303951,-0.000157292
0.31,-0.00223339
0.311111,-0.000253176
0.3125,-0.000399098
0.314,-0.000810973
0.32,-0.000326015
0.32,-0.000337526
0.32,-0.00058017
0.32,-0.000587685
0.32,-0.000340865
0.32,-2.85727e-05
0.32,-0.000331004
0.32,-0.000317489
0.32,-0.000434235
0.32,-0.000326693
0.32,-0.000219132
0.323967,-0.000261316
0.324333,-0.000323475
0.324333,-0.000317607
0.327,-0.000325803
0.33,-0.000397703
0.33,-0.000324322
0.33,-0.000397703
0.333333,-0.000336021
0.333333,-0.000334633
0.333333,-0.000235355
0.333333,-0.000273609
0.334783,-0.000316171
0.336,-0.000316625
0.336,-0.000353221
0.336,-0.000317744
0.34,-0.000334505
0.34,-0.000385817
0.34,-0.000392352
0.34,-0.000405813
0.34,-0.000365724
0.34,-0.000393183
0.34,-0.000325337
0.342,-0.0015429
0.35,-0.00164401
0.35,-0.000500024
0.35,-0.00042342
0.351958,-0.000265223
0.36,-0.000248164
0.36,-0.000248164
0.36,-0.000146972
0.36,-0.000210005
0.36,-0.000334394
0.360036,-0.000512842
0.363,-0.000358924
0.364286,-0.000897769
0.372,-0.000710052
0.372,-0.00035107
0.372,-0.000333938
0.373333,-0.000454444
0.381679,-0.000460716
0.384,-0.000318835
0.384,-0.000320887
0.384,-0.000312839
0.384061,-0.000232677
0.388,-0.00265296
0.388,-0.00265081
0.4,-0.000101611
0.4,-0.000330346
0.4,-0.00436075
0.4,-0.000634017
0.4,-0.000650341
0.4,-0.000922358
0.4,-0.0139498
0.4,-0.000400001
0.4,-0.000319111
0.4,-0.000449931
0.4,-0.000518519
0.4,-0.00069018
0.4,-0.000897929
0.4,-0.000418161
0.4,-0.00053063
0.4,-0.000325078
0.4,-0.000659209
0.4,-0.00305625
0.4,-0.000823088
0.4,-0.00066118
0.4,-0.000369447
0.4,-0.00101439
0.4,-0.000601729
0.4,-0.00019607
0.4,-0.000463587
0.4,-0.000231682
0.4,-0.000424238
0.4,-0.000348567
0.4,-0.000552286
0.4,-0.000553474
0.4,-0.000327918
0.4,-0.000422717
0.4,-0.000268139
0.4,-0.000297666
0.4,-0.000444627
0.4,-0.000528863
0.4,-0.000369954
0.4,-0.000767767
0.4,-0.000311955
0.4,-0.00118709
0.4,-0.000610788
0.4,-0.000452275
0.412,-0.00605562
0.415385,-0.000269742
0.416,-0.00031495
0.418,-0.000317984
0.42,-0.000400014
0.42,-0.000352215
0.42,-0.000238171
0.42,-0.000984854
0.43,-0.0003265
0.432,-0.000273327
0.432,-0.000309279
0.439216,-0.000220236
0.44,-0.000499748
0.442,-0.00306345
0.448,-0.000430464
0.45,-0.00356568
0.45,-0.000370465
0.45,-0.001087
0.45,-0.00143634
0.45,-0.000463079
0.45,-0.00130656
0.45,-0.0012231
0.452632,-0.00101146
0.454,-0.00059235
0.45625,-0.00039772
0.46,-0.000450902
0.46,-0.000471557
0.462,-0.00049773
0.47,-0.000286249
0.479904,-0.000436324
0.48,-0.000715382
0.48,-0.000142376
0.48,-0.000205379
0.48,-0.000740576
0.48,-0.000698824
0.48,-0.000202482
0.485437,-0.000349523
0.488889,-0.00274969
0.488889,-0.00274969
0.493298,-0.000524149
0.49597,-0.000282556
0.49597,-0.000302092
0.5,-0.000600913
0.5,-0.000349244
0.5,-0.000802715
0.5,-0.000383519
0.5,-0.00578459
0.5,-0.000521082
0.5,-0.000364903
0.5,-0.000268416
0.5,-0.000541037
0.5,-0.000616775
0.5,-0.000449434
0.5,-0.000427755
0.5,-0.000305787
0.5,-0.000425888
0.5,-0.000616775
0.5,-0.000616775
0.5,-0.000341844
0.5,-0.000369102
0.5,-0.000372276
0.5,-0.000457945
0.5,-0.000657035
0.5,-0.000614041
0.50104,-0.000386808
0.50152,-0.00038498
0.50752,-0.000428024
0.507614,-0.000529791
0.507614,-0.000479375
0.50784,-0.000457823
0.511836,-0.00020526
0.512,-0.000436468
0.512,-0.000259279
0.512,-0.000250587
0.515464,-0.000532715
0.52,-0.00037682
0.52,-0.00036367
0.52,-0.000395934
0.520833,-0.000660658
0.520833,-0.000713596
0.528053,-0.00027536
0.52872,-0.000303466
0.53,-0.000357956
0.533333,-0.00122847
0.533333,-0.000347238
0.533333,-0.000311438
0.54,-0.000713727
0.54,-0.00101928
0.542005,-0.00034708
0.542005,-0.00034708
0.543848,-0.000273341
0.55,-0.000269404
0.55,-0.000439507
0.551724,-0.00148262
0.559832,-0.000192392
0.559832,-0.00023833
0.56,-0.000230291
0.56,-0.000257706
0.56,-0.000268124
0.571429,-0.000658248
0.575,-0.000935291
0.575,-0.000766333
0.575,-0.000575059
0.575,-0.000904118
0.58,-0.00086029
0.581818,-0.000146589
0.587,-0.000930432
0.588,-0.0010969
0.599747,-0.000667011
0.6,-0.00296291
0.6,-0.000564816
0.6,-0.00055785
0.6,-0.000564816
0.6,-0.000446039
0.6,-0.00179361
0.6,-0.00127825
0.6,-0.000515577
0.6,-0.000334786
0.6,-0.00034378
0.6,-0.000358639
0.6,-0.000583111
0.60024,-0.00119668
0.60024,-0.000368797
0.608041,-0.000399782
0.62,-0.000303789
0.62,-0.000285021
0.62,-0.000303789
0.62,-0.000297667
0.633,-0.000860708
0.633,-0.000860708
0.64,-0.000110253
0.64,-0.000454403
0.64,-0.000212432
0.655738,-0.000235439
0.663415,-0.000210731
0.666667,-0.000449322
0.666667,-0.000338989
0.67,-0.000343075
0.67,-0.000353679
0.68359,-0.000513028
0.685714,-0.000283068
0.69,-0.00758257
0.7,-0.000350373
0.7,-0.000294666
0.7,-0.000677471
0.7,-0.000338655
0.7,-0.00850401
0.707,-0.000856432
0.72,-0.000690816
0.72,-0.00074157
0.723404,-0.000309216
0.73,-0.000270418
0.736,-0.000490537
0.75,-0.000859097
0.752381,-0.000397821
0.753,-0.000956252
0.755556,-0.000201596
0.757576,-0.000341686
0.757576,-0.00105898
0.757576,-0.000330248
0.767754,-0.000246873
0.8,-0.000219632
0.8,-0.000236294
0.8,-0.00288448
0.8,-0.0311324
0.8,-0.00023978
0.8,-0.000261947
0.8,-0.000261947
0.8,-0.000774023
0.8,-0.000231353
0.8,-0.000224624
0.8,-0.000248792
0.8,-0.000267157
0.8,-0.000221794
0.8,-0.000409319
0.8,-0.000222292
0.8,-0.00041403
0.8,-0.000231353
0.8,-0.000475904
0.8,-0.000335011
0.8,-0.000272388
0.8,-0.000719491
0.8,-0.000186159
0.8,-0.000947256
0.8,-0.000396756
0.81,-0.00137586
0.816049,-0.000112146
0.816049,-0.000111496
0.831601,-0.000324239
0.833333,-0.000356008
0.867925,-0.000131998
0.87037,-0.000159748
0.873,-0.00067979
0.88,-0.000138899
0.88,-0.000138899
0.9,-0.000641698
0.9,-0.000107813
0.913,-0.000325167
0.92,-0.000607305
0.93,-0.000182082
0.93,-0.000150959
0.93,-0.000150959
0.93,-0.000171868
0.95,-0.000372243
0.957,-0.000349303
0.972222,-0.00892326
0.99,-0.000488482
0.995,-0.000274713
1.0,-0.00175521
1.0,-0.000303121
1.00115,-0.000131839
1.00694,-0.000140738
1.00928,-0.000128397
1.03333,-0.000147223
1.04,-0.000541429
1.04,-0.000524635
1.05,-7.62606e-05
1.05,-7.62606e-05
1.0625,-0.000448487
1.07,-0.000143437
1.07,-0.000136898
1.073,-0.000308804
1.1,-0.000917045
1.13942,-0.000860074
1.157,-0.000223949
1.2,-0.000307408
1.22727,-0.00130132
1.25,-0.00392587
1.25,-0.00697061
1.25,-0.00015065
1.3,-0.000551466
1.3,-0.00187972
1.31,-0.000137012
1.425,0.0019059
1.44,0.000467238
1.52,0.000432588
1.52,0.000489979
1.52,0.000407211
1.6,0.00039693
1.6,0.000493348
1.6,0.00310754
1.6,0.00310754
2,0.00165847
2,0.00189161
2,0.00284575
2.0,0.0157882
2.0,0.015644
2.0,0.00153738
2.0,0.0273064
2.0,0.00142867
2.0,0.0310074
2.0,0.0125492
2.07059,0.00178086
2.17647,0.000788842
2.2,0.0205014
2.4024,0.00054923
2.45333,0.000483052
2.48889,0.00106641
2.8,0.000443032
2.8,0.000443032
3,0.000549524
3.2,0.00100517
3.2,-0.00157844
3.2,0.00033983
5.0,0.000290163
6.4,0.000338295
6.4,0.00028382
8,0.000390896
8,0.00025483
8.2,0.000368612
9.63855,0.000335072
18.0,0.000472559
26.5714,0.000275654
358.4,0.000671615
358.4,0.000599903