File: KFI-RHO-LTA-UFI_paper/dependence_plot_data/UFI_H2OSi.csv
H$_2$O/Si,SHAP value
0.0,-0.000318155
0.0,-0.000272863
0.0,-0.000357376
0.0,-0.000434823
0.0,-0.000416503
0.0,-0.000242577
0.0,-0.000543333
0.0,-0.000419831
0.0,-0.000440778
0.0,-0.000739982
0.0,-0.000343048
0.0,-0.000217236
0.0,-0.000425429
0.0,-0.000419431
0.0,-0.000403541
0.0,-0.000241905
0.0,-0.000327166
0.0,-0.000493073
0.0,-0.000349088
0.0,-0.000377931
0.0,-0.000336825
0.0,-0.000805554
0.0,-0.000254777
0.0,-0.000435887
0.0,-0.00156677
0.0,-0.000436784
0.0,-0.000357386
0.0,-0.000429688
0.0,-0.000381556
0.0,-0.000419431
0.0,-0.000822856
0.0,-0.00531227
0.0,-0.000238506
0.0,-0.000331457
0.0,-0.000340944
0.0,-0.000306455
0.0,-0.000358296
0.0,-0.000236793
0.0,-0.000235834
0.0,-0.000385954
0.0,-0.000243911
0.0,-0.000460611
0.0,-0.000467633
0.0,-0.000404718
0.0,-0.000398963
0.0,-0.00027242
0.0,-0.000562369
0.17,-0.000348756
0.318182,-0.000361955
0.388889,-0.000361955
0.45,-0.000317307
0.614,-0.000259254
1.0,-0.000235445
1.06667,-0.000310635
1.78,-0.00182267
1.78,-0.00188051
1.80072,-0.000286104
2,-0.000359
2,-0.000662213
2.04082,-0.000229996
2.04082,-0.000255453
2.079,-0.000229996
2.10084,-0.000249596
2.13333,-0.000227796
2.23881,-0.000881752
2.23881,-0.000324834
2.5,-0.000217862
2.5,-0.000250345
2.5,-0.000262691
2.5,-0.000664838
2.85714,-0.000351883
3,-0.000375408
3,-0.000500772
3,-0.00022793
3.0,-0.000331937
3.0,-0.000234163
3.0,-0.000261648
3.06,-0.000280495
3.15,-0.000238752
3.29997,-0.000264965
3.29997,-0.00038744
3.29997,-0.000535186
3.29997,-0.000229059
3.29997,-0.000395494
3.3,-0.000374167
3.3,-0.000238002
3.5225,-0.000396833
3.60144,-0.000275105
3.86111,-0.00244351
4,-0.000412873
4.0,-0.000190168
4.21053,-0.000384419
4.47761,-0.00031054
4.5,-0.000221372
4.54545,-0.000262855
4.54545,-0.000356347
4.54545,-0.000279514
4.54545,-0.000414598
4.54545,-0.000225925
4.62766,-0.00034407
4.74716,-0.000456471
4.74716,-0.000387321
4.74716,-0.000299184
4.78717,-0.000289245
4.78723,-0.000258212
4.78723,-0.00034407
4.8006,-0.000275067
4.84043,-0.000249377
4.84043,-0.000296073
4.89362,-0.000264237
4.94681,-0.000252246
4.94681,-0.000329691
5,-0.000945656
5,-0.000234683
5,-0.000401835
5,-0.000248188
5,-0.000250646
5,-0.00032018
5,-0.00930455
5,-0.00148654
5,-0.000385991
5,-0.000535534
5,-0.000294937
5,-0.000236939
5,-0.000288026
5,-0.000704357
5.0,-0.000744278
5.0,-0.000238937
5.0,-0.000427813
5.0,-0.000238722
5.0,-0.000966564
5,-0.000236629
5,-0.00135361
5,-0.00034186
5,-0.000909112
5,-0.000382235
5,-0.000253998
5,-0.00107778
5,-0.000251801
5,-0.000255948
5,-0.000306412
5,-0.000228185
5,-0.000382235
5.01636,-0.000712237
5.10204,-0.000193627
5.10204,-0.000202783
5.16484,-0.000640453
5.17857,-0.000360773
5.19751,-0.000209251
5.2521,-0.000185322
5.33333,-0.000190068
5.5,-0.000383303
5.5,-0.000371439
5.5,-0.000430075
5.6,-0.00158047
5.8,-0.000190462
5.84307,-0.000236103
5.9727,-0.000247909
6,-0.000191937
6,-0.000226387
6.13333,-0.00103441
6.25,-0.000200284
6.33,-0.000707166
6.5,-0.000772818
6.66667,-0.000284029
6.66667,-0.0002233
6.8,-0.00172843
7,-0.000352283
7,-0.0015183
7,-0.000374737
7,-0.000353319
7,-0.000286853
7,-0.000298123
7,-0.000350538
7,-0.00020644
7,-0.000230539
7,-0.000239562
7.2366,-0.00024417
7.25,-0.000278769
7.28,-0.00152254
7.41667,-0.00140541
7.5,-0.000210291
7.5,-0.000974892
7.5,-0.000903897
7.5,-0.000173912
7.68654,-0.000314394
7.69992,-0.00020699
7.69992,-0.000217035
7.69992,-0.000223075
7.69992,-0.000235441
7.69992,-0.000341322
7.75,-0.00404717
7.89,-0.000299579
8.18938,-0.000243843
8.3,-0.000210066
8.5,-0.000219082
8.75,-0.000306359
8.788,-0.000535628
8.9876,-0.000225944
9.0,-0.0026631
9.0,-0.000202056
9.0,-0.000263549
9,-0.000215584
9.5,-0.000311127
9.58333,-0.000341401
9.8,-0.00120233
9.8,-0.00119673
9.87,-0.000427782
10,-0.000268756
10,-0.00104841
10,-0.000258278
10,-0.000216854
10.0,-0.000243715
10.0,-0.000207755
10.0,-0.000254404
10.0,-0.000315324
10.0,-0.000282735
10.0,-0.000315272
10.0,-0.000265412
10.0,-0.000277684
10.0,-0.000168471
10.0,-0.000164605
10.0,-0.00047205
10.0,-0.000192288
10.0,-0.000256876
10.0,-0.000249571
10.0,-0.00023706
10.0,-0.000242202
10.0,-0.000459084
10.0,-0.000217612
10.0,-0.00032043
10.0,-0.000268059
10.0,-0.000211303
10.0,-0.000315324
10.0,-0.000189912
10.0,-0.000254739
10.0,-0.000213898
10.0,-0.000282735
10,-0.000244449
10,-0.00015363
10,-0.000185921
10,-0.000265488
10,-0.000225143
10.2041,-0.000170207
10.395,-0.000199677
10.5042,-0.000178835
10.6061,-0.000200277
10.6061,-0.000305123
10.6061,-0.000210212
10.6061,-0.000389186
10.6061,-0.000384253
10.6667,-0.000184327
10.6667,-0.000184092
10.6667,-0.000195081
10.6667,-0.000271567
10.6667,-0.000197552
10.83,-0.000260079
10.8911,-0.000237845
11,-0.000708606
11.0,-0.000297541
11.0,-0.00140537
11.2833,-0.000232337
11.2833,-0.000235767
11.47,-0.000259312
11.6,-0.000207338
11.6,-0.000253423
11.6,-0.000206676
11.6977,-0.00029466
11.8,-0.00120561
11.8,-0.00120703
12,-0.000328204
12.0,-0.000181893
12.0512,-0.000310762
12.3457,-0.000166302
12.3457,-0.000166302
12.4375,-0.000851795
12.6,-0.000319964
12.6875,-0.000879353
13,-0.00098496
13.0,-0.00149216
13,-0.00152173
13,-0.000931741
13.12,-0.000323327
13.5,-0.000221213
13.5,-0.000274241
13.5,-0.000217191
13.5,-0.000347406
13.6459,-0.000149696
13.6459,-0.000159204
14,-0.000263039
14,-0.000370129
14,-0.000166856
14,-0.000230184
14,-0.000180305
14.0,-0.000243447
14.0,-0.000224576
14.0,-0.000331185
14.0,-0.000234612
14,-0.000211925
14.1803,-0.000283095
14.5,-0.00436701
14.7059,-0.000218494
14.8,-0.000270465
15,-0.00295834
15,-0.000222707
15,-0.00295834
15,-0.000494525
15,-0.00024953
15,-0.00142719
15,-0.000225825
15,-0.000212134
15,-0.00130334
15,-0.000198498
15,-0.000333963
15,-0.000209092
15,-0.000382378
15,-0.000326671
15,-0.000346082
15,-0.000656503
15,-0.0015168
15,-0.000238294
15.0,-0.00117793
15.0,-0.000135886
15.0,-0.00118508
15.0,-1.62825e-05
15.0,-0.000253231
15.0,-0.000267365
15.0,-0.000221356
15.0,-0.000905478
15.0,-0.000387934
15.0,-0.000568422
15.0,-0.000439927
15.0,-0.000222281
15.0,-0.00047798
15.0,-0.000166118
15.0,-0.000270797
15.0,-0.000366271
15.0,-0.000773593
15.0,-0.00086612
15.0,-3.60719e-05
15,-0.000202182
15,-0.000230912
15,-0.000482058
15,-0.000490582
15,-0.000257825
15,-0.00032054
15,-0.000151202
15.1515,-0.000214705
15.1515,-0.000175029
15.2,-0.000284526
15.5,-0.000293475
15.6,-0.00100261
15.7169,-0.00024121
15.8,-0.000325638
15.9259,-0.000169182
16.0,-0.000283045
16.0,-0.000260737
16.0,-0.000260737
16.0,-0.000241151
16.0,-0.000295309
16,-0.00023308
16,-0.00289998
16.1681,-0.000185794
16.2338,-0.000204276
16.4998,-0.000188772
16.4998,-0.00017605
16.4998,-0.000178575
16.4998,-0.000162782
16.4998,-0.000248398
16.4998,-0.000226286
16.6667,-0.000105869
16.6667,-9.71196e-05
16.6667,-0.000194445
16.6667,-0.000834476
16.6667,-0.000195949
16.6667,-9.22893e-05
16.6667,-0.000385038
16.6667,-0.000101606
16.6667,-0.000136041
16.6667,-0.000139589
16.6667,-0.00021693
17.1429,-0.000207981
17.765,-0.000122517
17.9,-3.16984e-05
17.9,-2.07548e-07
18.0,-0.000141033
18,-0.000146241
18,-0.000172967
19.2,-0.000119354
19.2,-8.63711e-05
19.2,-0.000126133
19.5,1.54062e-05
19.5,-1.33614e-05
19.5,1.51206e-05
19.5,-1.07857e-05
19.5,-2.81194e-05
19.5352,0.000796927
20,5.49474e-05
20,-8.392e-05
20,7.33486e-05
20,-2.93474e-05
20,-5.3026e-05
20,-0.000144503
20,3.24111e-05
20,-4.86765e-05
20,-2.94497e-05
20,1.78641e-06
20,-6.54841e-05
20,-2.55189e-05
20,-7.27332e-05
20,-1.09818e-05
20,-0.000353976
20,-2.93474e-05
20,1.58415e-05
20.0,-9.23957e-05
20.0,-9.45794e-05
20.0,-3.74228e-05
20.0,3.00751e-05
20.0,-5.09077e-05
20.0,-9.72778e-06
20.0,-3.64237e-05
20.0,3.16251e-05
20.0,-2.08127e-05
20.0,3.46796e-05
20.0,-9.97255e-05
20.0,-6.87756e-05
20.0,-7.16192e-05
20.0,3.14741e-05
20.0,-8.85915e-05
20.0,3.13108e-05
20.0,9.94989e-05
20.0,-0.00016489
20,4.25502e-06
20,-0.000119673
20,-4.66103e-05
20,-0.000113431
20,-0.000113431
20,-6.01279e-05
20,-5.76369e-06
20,0.000157664
20,-9.91827e-05
20,0.000258058
20,-7.52849e-05
20,-0.000127487
20.4,6.64153e-05
20.4,0.000106294
20.4,0.000107194
20.7,7.91259e-05
21,-1.37781e-05
21,-5.27778e-06
21,-0.00106351
21.135,1.36087e-05
21.135,-9.52698e-06
21.16,-5.53967e-05
21.5686,-2.5073e-05
22,-0.00129053
22.2222,7.21478e-05
22.2222,0.000123803
22.5,0.000244718
22.7273,9.79277e-05
22.7273,7.46816e-05
22.7273,0.000130269
22.7273,9.10295e-05
23.2759,0.000220106
23.5,0.000315214
23.5189,0.000580311
23.6,0.000161449
23.6,0.000178332
23.6,0.000140754
23.8095,0.00031793
24.0,0.000331944
24.0,0.000658503
24.0625,0.00027204
24.75,0.000697059
24.7619,0.000386353
25,0.000588913
25,0.00038291
25,0.000435929
25,0.000384399
25,0.000420403
25,0.000730408
25,0.000306517
25,0.000307324
25.0,0.000577072
25.0,0.000434584
25,0.000627252
25,0.000313003
25,0.00134848
25,0.00038796
25,0.00032681
26.0,0.00132065
26,0.000323633
26,0.000326172
26.4,0.00104724
27.0,0.000644882
27.0507,0.00066138
27.7778,0.00480334
27.9444,0.000469819
28,0.0008956
28,0.000679203
28,0.000944584
28.4,0.00277627
29,0.000369995
30,0.000755236
30,0.000925869
30,0.000539987
30,0.00054315
30,0.000915335
30,0.000689885
30,0.0005597
30,0.000752325
30,0.00102286
30,0.00150371
30,0.000695311
30,0.000831702
30,0.000704568
30,0.000631554
30,0.000729092
30,0.000735882
30,0.00181791
30,0.000727134
30,0.000806271
30,0.000858177
30,0.000557885
30,0.000837254
30,0.000813308
30,0.00138643
30,0.000684611
30,0.000897843
30,0.000811659
30,0.00103878
30,0.000811371
30,0.000594852
30,0.000941302
30,0.000746811
30,0.000786149
30,0.000898608
30,0.000742587
30,0.00061584
30,0.000740412
30.0,0.000759382
30.0,0.000739008
30.0,0.000640722
30.0,0.000805789
30.0,0.000715852
30.0,0.000655013
30.0,0.000577805
30.0,0.00227673
30.0,0.000589936
30.0,0.00138629
30.0,0.000944664
30.0,0.000816949
30.0,0.00758746
30.0,0.00054516
30.0,0.000648324
30.0,0.000830535
30.0,0.000689885
30.0,0.000686968
30.0,0.000609017
30.0,0.000914872
30.0,0.0016323
30.0,0.000666914
30.0,0.000655019
30.0,0.000812903
30.0,0.000759844
30,0.00524871
30,0.0152834
30,0.000634893
30,0.000680284
30,0.000813749
30,0.000787172
30,0.0116302
30,0.000884583
30,0.005291
30,0.000845416
30,0.0067698
30,0.000646687
30,0.00623779
30,0.000813749
30,0.000933757
30,0.00423897
30,0.00064753
30,0.00746168
30,0.031077
30,0.000742286
30,0.00141778
30,0.000543388
30,0.000742587
30,0.000560057
30,0.000811979
30,0.000804328
30,0.000960331
30,0.000751966
30,0.00081528
30,0.000857544
30,0.000519179
30,0.00170731
30,0.000717898
30,0.000598661
30.45,0.000902013
31,0.000764495
31,0.000719699
31,0.000717829
31.0,0.000505575
31,0.000493967
31.2,0.00176082
31.2,0.00127919
31.9333,0.000533374
32.2667,0.000433673
33.2,0.000497629
33.2,0.000497629
35,0.000281399
35,0.000312477
35,0.000251416
35,0.000289787
35,0.000297841
35,0.000347883
35,0.000204237
35,0.000260537
35,0.000413728
35,0.000794824
35,0.000305062
35,0.000304904
35,0.000238296
35,0.000243695
35,0.000257296
35.0,0.000579832
35.0,0.000384677
35.0,-0.00104045
35.0,0.000913691
35.0,0.000283221
35.0,0.000373959
35.0,0.000373959
35,0.000279194
35,0.00027746
35,-4.90658e-05
35.04,0.000279661
35.04,0.000282565
35.1333,0.00076457
35.3,0.000284626
35.5333,0.000198299
35.5625,0.000291595
36,-0.0013666
36,-0.0013666
36,0.000246892
36,0.000158887
36,0.000295196
36.0144,0.000223831
36.7816,0.000176915
37.1818,0.000200392
37.182,0.000227625
37.182,0.00022814
37.182,0.000296237
37.5,0.000249725
37.5,0.00332096
38,0.000399692
38.0,0.000166676
38.0711,0.000137513
38.0711,0.000137513
38.2759,7.99419e-05
38.4124,0.000116499
38.6127,0.0001004
38.6598,1.0839e-05
39.5833,0.000165983
40,0.000111242
40,0.000124346
40,9.78914e-05
40,0.000175588
40,0.000106107
40,8.66693e-05
40,0.000117462
40,-0.00205785
40,0.000120695
40,0.000104957
40,0.000103653
40,0.000151752
40,8.12992e-05
40,0.00119709
40,0.000107437
40,0.000105584
40,0.000111879
40,0.000117197
40,8.67027e-05
40,0.000108404
40,0.000123523
40,-0.00170681
40.0,0.000107437
40.0,0.000120563
40.0,0.000106401
40.0,4.00278e-05
40.0,5.92961e-05
40.0,8.13975e-05
40.0,8.8986e-05
40.0,0.000107437
40.0,-0.00010047
40.0,0.00010545
40.0,0.000134991
40.0,0.000279523
40.0,0.000160124
40.0,0.000135604
40.0,-8.13145e-05
40.0,0.00010425
40.0,-0.000108734
40.0,0.000119967
40.0,9.10833e-05
40.0,0.000205672
40.0,0.000101652
40.0,3.66581e-05
40.0,8.13975e-05
40.0,0.000299407
40.0,0.000156568
40.0,0.000152769
40.0,0.000107437
40.0,7.34613e-05
40.0,-0.000103966
40.0,7.97106e-05
40.0,0.000113142
40.0,8.13979e-05
40.0,-0.000101382
40.0,0.000165868
40,0.000104634
40,9.75894e-05
40,8.66555e-05
40,0.000115731
40,9.45265e-05
40,0.000119039
40,0.000127087
40,9.11452e-05
40,9.75989e-05
40,8.14985e-05
40,0.000118179
40,6.72663e-05
40,0.000290752
40,9.3008e-05
40,0.000122777
40,9.57657e-05
40,0.000108125
40,0.000566542
40,8.69108e-05
40,9.46164e-05
40,4.56583e-05
40,9.35059e-05
40,0.000103076
40,4.53861e-05
40,8.66555e-05
40,0.000103332
40,0.000124671
40,0.000121922
40,0.000119039
40,9.45265e-05
40,0.000149297
40,0.000145177
40,0.000104771
40,0.0001635
40,0.000263357
40,0.000151021
40.3297,7.91321e-05
40.6,7.87064e-05
40.84,0.000111644
40.84,0.000103475
40.8889,0.000125261
41,0.000120682
41.25,0.000175954
41.5,0.000226245
41.72,0.000125298
42,9.70939e-05
42,3.84166e-05
42,0.00016824
42,3.96874e-05
42,8.48844e-05
42,9.88057e-05
42,4.30675e-05
42.0,7.06196e-05
42.0,8.726e-05
42.0,6.95511e-05
42.0,0.000254225
42.2,9.28687e-05
42.3077,0.000146376
42.35,0.000160833
42.848,0.00010472
42.848,9.96616e-05
43.7584,0.000150532
43.7584,0.000150993
43.7584,0.000166011
43.7584,0.000206201
43.7584,0.000173737
43.7584,0.000166333
43.7584,0.000173922
43.7584,0.000177047
43.77,0.000198362
44,0.000176046
44,5.78713e-05
44,0.000142636
44.0,0.000126058
44.0,8.69784e-05
44.0,8.69784e-05
44,0.000163788
44,0.000105639
44,0.000120552
44.4444,3.38655e-05
44.8845,0.000211347
45,0.000319701
45,5.83727e-05
45,6.57785e-05
45,0.000196882
45.0,0.00015951
45.0,0.000150177
45.0,0.000132124
45.0,0.000226214
45.0,3.34994e-05
45,6.05153e-05
45,0.000203307
45,8.27238e-05
45,0.000145982
45,0.000152228
45,6.91127e-05
45,0.000100715
45,5.20698e-05
45.4545,-2.66115e-05
45.4545,0.000113157
45.4545,9.34242e-05
45.4545,0.000113157
45.4545,5.533e-05
45.5,0.000135218
45.5,0.00014668
45.6665,9.12983e-05
45.72,9.98827e-05
45.8746,5.64289e-05
46.6667,0.000133619
46.6667,9.1338e-05
48,0.000161166
50,0.00012323
50,0.000101992
50,8.47074e-05
50,4.98336e-05
50.0,0.000463499
50,6.91106e-05
50,-3.00291e-06
50,0.000178944
50,8.81959e-05
50,9.73178e-05
50,5.45432e-05
50,1.91973e-05
50,5.40154e-05
50.9356,-6.45134e-06
52,0.000109762
54,0.000129631
54,0.000108396
54.1667,-0.000308693
54.1667,-0.00114841
56.3725,0.000307581
57,8.60542e-06
57.2414,-1.50731e-05
58.3333,4.5385e-05
58.6538,-5.91077e-05
58.8235,1.18139e-05
60,6.46474e-05
60,1.75329e-05
60,7.9661e-05
60,2.91024e-05
60,4.62946e-05
60,2.79943e-05
60.0,4.57551e-05
60,1.43831e-06
60,9.98889e-05
60,6.2621e-05
62.2222,3.3861e-05
62.5,-4.28285e-05
64,4.39162e-07
65,-1.52687e-05
66.3636,-2.74783e-05
66.6667,-1.03506e-05
69.8,2.54828e-05
75,3.47171e-05
75,2.01096e-05
76.9231,-6.6509e-05
80,5.52015e-06
80,1.41899e-05
83.3333,-9.78559e-05
85.0,1.53144e-05
90.9091,-0.000211687
92,-2.17374e-05
95,-4.50742e-05
95,-2.07691e-05
98.9583,-0.00014003
100,-4.34255e-05
100,2.92104e-05
100,-3.16378e-05
100.0,1.35741e-05
100.0,-0.000102151
100.0,1.35137e-05
100.0,1.04926e-05
100.0,-0.000102039
100.0,3.84588e-05
100.0,-5.28697e-05
100,1.74788e-05
100,2.64207e-05
100,3.65418e-05
100,2.01422e-05
100,2.24223e-05
110,-4.46762e-05
111.0,-1.95635e-05
116.0,-0.000124482
120.0,8.52838e-05
125.0,-7.02947e-05
132.0,7.90484e-05
136.036,-6.31427e-05
139.333,-6.27666e-05
161.765,-0.000165748
161.765,-0.000122332
174.0,-0.000115454
180.0,-2.4067e-05
200,-0.000199253
200,-9.7899e-05
200.0,-0.00011375
200,2.55412e-05
240,-4.48659e-05
250,4.34191e-05
400,-0.00021985
400,-8.9166e-05
400,-0.000182953
485.542,-3.97911e-05
555,-0.000178944
555,2.53991e-05
714.286,-0.000183228